block	randomize	Trialnumber	type	IllusionType	Condition	Picture	Question_display1	keyboard	key	title	trialAudio	presTime	ITI	answer_type	keypress	RT	ACC	t	literate	number
1		23	test	ambiguous	illusion	Kaniza.png	Can you notice one triangle?	2 minus	2		kaniza1.wav	5000	500	yes-no	2	3.939233215495733	1	9.16550004619421	y	24
1		24	test	ambiguous	illusion	Kaniza.png	Can you notice another triangle?	2 minus	2		kaniza2.wav	5000	500	yes-no	2	4.035574022655965	1	13.726198754199686	y	24
2	yes	40	test	shape	control	giovanelli_control.png	Are the two dots at the same height?	2 minus	2		giovanelliQC.wav	5000	500	yes-no	2	7.0592123711203385	1	21.29881935901085	y	24
2	yes	2	test	shape	illusion	Poggendoff.png	Will the black line behind the grey bar meet the blue line?	2 minus	minus		poggendoffQ.wav	5000	500	yes-no	2	12.202652795269387	0	34.027300701997774	y	24
2	yes	7	test	shape	illusion	Ehrenstein.png	Are the lines of the square straight?	2 minus	2		ehrenseinQC.wav	5000	500	yes-no	minus	6.328099142074279	0	40.86868853867236	y	24
2	yes	47	test	colour	control	whitesdottedline_control.png	Do the squares have different colour?	2 minus	minus		whitesdottedC.wav	5000	500	yes-no	minus	4.4277201828990655	1	45.82039393600462	y	24
2	yes	3	test	shape	illusion	ebbinghaus.png	Are the orange circles of the same size?	2 minus	2		ebbinghausQC.wav	5000	500	yes-no	minus	3.9113558893459413	0	50.252052425386864	y	24
2	yes	19	test	colour	illusion	White.png	Do the horizontal bars have different colours?	2 minus	minus		whiteQC.wav	5000	500	yes-no	2	8.527980251331428	0	59.315965721862085	y	24
2	yes	38	test	shape	control	orbison_control.png	Does the red figure look like an elongated square?	2 minus	minus		orbisonQC.wav	5000	500	yes-no	minus	11.835261357024137	1	71.6587341337181	y	24
2	yes	26	test	ambiguous	illusion	Rubinsvase.png	What do you see?	2 minus			ambiguious.wav	30000	500	spoken				98.7684483258854	y	24
2	yes	14	test	shape	illusion	Oppel-kundt.png	Is the third lines from the right the middlemost line?	2 minus	2		oppelkundtQ.wav	5000	500	yes-no	minus	18.427446256035182	0	117.71878489933533	y	24
2	yes	36	test	shape	control	ehrensein_control.png	Are the lines of the square straight?	2 minus	2		ehrenseinQC.wav	5000	500	yes-no	minus	8.701827367724945	0	126.94161184077166	y	24
2	yes	21	test	colour	illusion	saturationcontrast.png	Do the two small boxes have the same colour?	2 minus	2		saturationcontrastQ.wav	5000	500	yes-no	2	5.951829799028928	1	133.42727890130936	y	24
2	yes	48	test	colour	control	saturation_control.png	Do the squares have different colour?	2 minus	minus		saturatedC.wav	5000	500	yes-no	minus	4.337849884836942	1	138.29871927034947	y	24
2	yes	10	test	shape	illusion	sanders.png	Are the blue lines of the same length?	2 minus	2		sanderQC.wav	5000	500	yes-no	minus	4.495959578768634	0	143.3216257964541	y	24
2	yes	22	test	colour	illusion	cyan_square.png	Do the circles inside and outside the square have different colours?	2 minus	minus		cyansquareQC.wav	5000	500	yes-no	minus	6.799415838807363	1	150.6423013584499	y	24
2	yes	5	test	shape	illusion	jastrow.png	Do the two figures have same size?	2 minus	2		jastrowQC.wav	5000	500	yes-no	minus	4.139862761020595	0	155.31614442267073	y	24
2	yes	49	test	colour	control	cyan_square_control.png	Do the circles inside and outside the square have different colours?	2 minus	minus		cyansquareC.wav	5000	500	yes-no	minus	3.7724178340977232	1	159.61580136574412	y	24
2	yes	27	test	ambiguous	illusion	DuckRabbit.png	What do you see? 	2 minus			ambiguious.wav	30000	500	spoken				186.71698613994886	y	24
2	yes	32	test	shape	control	ebbinghaus_control.png	are the circles of the same size?	2 minus	2		ebbinghausQC.wav	5000	500	yes-no	2	3.9860078482479366	1	191.24706258013157	y	24
2	yes	43	test	shape	control	amodal_control.png	Are the black rectangles having different sizes?	2 minus	minus		amodalC.wav	5000	500	yes-no	minus	4.163733704188417	1	195.9393393824157	y	24
2	yes	1	test	shape	illusion	mullerlyer.png	Are the two lines of same length?	2 minus	2		mullerlyerQC.wav	5000	500	yes-no	minus	4.708735916674414	0	201.1669134439735	y	24
2	yes	44	test	colour	control	checkerboard_control.png	Do the two boxes have same colour?	2 minus	2		CheckerboardC.wav	5000	500	yes-no	2	10.770359330451356	1	212.46314994821296	y	24
2	yes	8	test	shape	illusion	Hering.png	Are the red lines bent?	2 minus	minus		heringQC.wav	5000	500	yes-no	2	8.286233311127944	0	221.278862814509	y	24
2	yes	37	test	shape	control	Hering_control.png	Are the red lines bent?	2 minus	minus		heringQC.wav	5000	500	yes-no	minus	3.641559405659791	1	225.4488364591789	y	24
2	yes	31	test	shape	control	Mullerlyer_control.png	are the lines of same length?	2 minus	2		mullerlyerQC.wav	5000	500	yes-no	2	4.518843007490432	1	230.47728716774145	y	24
2	yes	30	test	ambiguous	illusion	husbandFIL.png	What do you see?	2 minus			ambiguious.wav	30000	500	spoken				257.5978526727313	y	24
2	yes	25	test	ambiguous	illusion	wifeMIL.png	What do you see?	2 minus			ambiguious.wav	30000	500	spoken				284.70961888506827	y	24
2	yes	39	test	shape	control	sander_control.png	Are the blue lines of the same length?	2 minus	2		sanderQC.wav	5000	500	yes-no	2	4.652558622779907	1	289.8945851628887	y	24
2	yes	35	test	shape	control	delbouef_control.png	Do the two black circles have different sizes?	2 minus	minus		delbouefQC.wav	5000	500	yes-no	2	10.101324574157843	0	300.52557285563034	y	24
2	yes	16	test	shape	illusion	amodal.png	Are the black rectangles having different sizes?	2 minus	minus		amodalQ.wav	5000	500	yes-no	2	4.3649982251490655	0	305.42085053480514	y	24
2	yes	34	test	shape	control	jastrow_control.png	Are both the figures of same size?	2 minus	2		jastrowQC.wav	5000	500	yes-no	2	5.536238173734091	1	311.491599441124	y	24
2	yes	12	test	shape	illusion	Giovanelli.png	Are the two dots at the same height?	2 minus	2		giovanelliQC.wav	5000	500	yes-no	minus	14.572546450053778	0	326.5802601656851	y	24
2	yes	13	test	shape	illusion	bourdon.png	Are the lines of the right side of the triangles bent?	2 minus	minus		bourdonQC.wav	5000	500	yes-no	minus	7.270221961803145	1	334.37967195231977	y	24
2	yes	11	test	shape	illusion	verticalhorizontal.png	Do the vertical and horizontal lines have different length?	2 minus	minus		verticalhorizontalQ.wav	5000	500	yes-no	2	5.8567038331930235	0	340.7618501733514	y	24
2	yes	42	test	shape	control	sheperdtable_control.png	Do the red shapes have the same size?	2 minus	2		shepardtableQC.wav	5000	500	yes-no	2	3.7358003770141295	1	345.01457931155164	y	24
2	yes	4	test	shape	illusion	Ponzo.png	Are the two horizontal lines of different length?	2 minus	minus		ponzoQC.wav	5000	500	yes-no	2	11.928317067912758	0	357.48158287584283	y	24
2	yes	45	test	colour	control	cornsweet_control.png	Do the two rectangles have the same colour?	2 minus	2		cornsweetC.wav	5000	500	yes-no	2	4.5003873876949	1	362.5095145011046	y	24
2	yes	41	test	shape	control	Bourdon_control.png	Are the lines of the right side of the triangles bent?	2 minus	minus		bourdonC.wav	5000	500	yes-no	minus	3.238248294440382	1	366.28082244514553	y	24
2	yes	9	test	shape	illusion	Orbison.png	Does the red figure look like an elongated square?	2 minus	minus		orbisonQC.wav	5000	500	yes-no	minus	14.719132170522244	1	381.5264995874886	y	24
2	yes	17	test	colour	illusion	checkerboard.png	Do the boxes pointed by arrows have the same colour?	2 minus	2		checkerboard.wav	5000	500	yes-no	minus	4.946534014746248	0	387.00535008339375	y	24
2	yes	18	test	colour	illusion	cornsweet.png	Do the two rectangles on the side of the black bar have the same colour?	2 minus	2		cornsweetQ.wav	5000	500	yes-no	2	6.1851429525422645	1	393.70848589762863	y	24
2	yes	46	test	colour	control	white_control.png	Do the horizontal bars have different colours?	2 minus	minus		WhitesC.wav	5000	500	yes-no	minus	5.4307483714310365	1	399.66960125001333	y	24
2	yes	20	test	colour	illusion	Whitedottedline.png	Do the squares have different colour?	2 minus	minus		whitedottedlineQ.wav	5000	500	yes-no	2	4.447118338025575	0	404.6402813504428	y	24
2	yes	15	test	shape	illusion	shepardtable.png	Do the red shapes have the same size?	2 minus	2		shepardtableQC.wav	5000	500	yes-no	minus	5.037600919356919	0	410.2112166566976	y	24
2	yes	33	test	shape	control	ponzo_control.png	Are the two horizontal lines of different length?	2 minus	minus		ponzoQC.wav	5000	500	yes-no	minus	4.610933490882417	1	415.3315220122113	y	24
2	yes	6	test	shape	illusion	Delboeuf.png	Do the two black circles have different sizes?	2 minus	minus		delbouefQC.wav	5000	500	yes-no	minus	5.3503536736188835	1	421.2030657116502	y	24
3		28	test	ambiguous	illusion	stairs.png	Are the stairs going from right bottom to left top?	2 minus	2		stairsQ1.wav	5000	500	yes-no	2	10.663289991295642	1	432.3849969122439	y	24
3		29	test	ambiguous	illusion	stairs.png	Can you also see another representation?	2 minus	2		stairs2.wav	5000	500	yes-no	2	9.496452728166332	1	442.4184621843151	y	24
