	Trialnumber	IllusionType	Condition	RT	ACC	literate	number	key	pp	subject
0	23	ambiguous	illusion	4.991633547	1.0	low	1	2	low_1	01
1	24	ambiguous	illusion	4.357222048	1.0	low	1	2	low_1	01
3	21	colour	illusion	12.1241065	1.0	low	1	2	low_1	01
4	7	shape	illusion	6.291837532000001	0.0	low	1	2	low_1	01
5	11	shape	illusion	8.958427073	1.0	low	1	minus	low_1	01
6	9	shape	illusion	7.876005741	1.0	low	1	minus	low_1	01
7	45	colour	control	9.979473076	1.0	low	1	2	low_1	01
8	48	colour	control	8.389616067999999	0.0	low	1	minus	low_1	01
9	44	colour	control	4.27476222	1.0	low	1	2	low_1	01
10	46	colour	control	5.45011654	0.0	low	1	minus	low_1	01
11	20	colour	illusion	4.71196378	0.0	low	1	minus	low_1	01
12	18	colour	illusion	9.16021431	1.0	low	1	2	low_1	01
13	40	shape	control	9.76493254	1.0	low	1	2	low_1	01
14	2	shape	illusion	10.26024543	1.0	low	1	minus	low_1	01
15	12	shape	illusion	8.943540727	0.0	low	1	2	low_1	01
17	34	shape	control	6.2089392629999995	1.0	low	1	2	low_1	01
18	14	shape	illusion	7.642438382999999	1.0	low	1	2	low_1	01
19	13	shape	illusion	5.437388769	0.0	low	1	minus	low_1	01
20	33	shape	control	7.631185186000001	1.0	low	1	minus	low_1	01
21	36	shape	control	5.886499972	1.0	low	1	2	low_1	01
22	4	shape	illusion	10.85788822	1.0	low	1	minus	low_1	01
23	10	shape	illusion	5.584782918999999	1.0	low	1	2	low_1	01
24	16	shape	illusion	4.278899455	1.0	low	1	minus	low_1	01
25	6	shape	illusion	8.3230617	1.0	low	1	minus	low_1	01
26	43	shape	control	4.282451966	1.0	low	1	minus	low_1	01
27	31	shape	control	4.249336665	0.0	low	1	2	low_1	01
28	41	shape	control	2.40247837	1.0	low	1	minus	low_1	01
29	5	shape	illusion	4.6896806589999995	1.0	low	1	2	low_1	01
31	17	colour	illusion	10.0827297	0.0	low	1	2	low_1	01
32	22	colour	illusion	7.657064176	0.0	low	1	minus	low_1	01
33	39	shape	control	6.223605172	0.0	low	1	2	low_1	01
34	37	shape	control	5.865571076	1.0	low	1	minus	low_1	01
35	15	shape	illusion	5.151064173	0.0	low	1	2	low_1	01
36	38	shape	control	14.09574679	1.0	low	1	minus	low_1	01
37	42	shape	control	5.060178732	1.0	low	1	2	low_1	01
38	47	colour	control	6.300670791	0.0	low	1	minus	low_1	01
39	1	shape	illusion	5.026951997	0.0	low	1	2	low_1	01
40	19	colour	illusion	9.156453114	0.0	low	1	minus	low_1	01
42	32	shape	control	5.5371026070000005	1.0	low	1	2	low_1	01
43	8	shape	illusion	11.34381109	0.0	low	1	minus	low_1	01
44	3	shape	illusion	5.72930937	0.0	low	1	2	low_1	01
45	49	colour	control	5.126152834	1.0	low	1	minus	low_1	01
46	35	shape	control	5.707104049	1.0	low	1	minus	low_1	01
47	28	ambiguous	illusion	13.35428344	0.0	low	1	2	low_1	01
48	29	ambiguous	illusion	13.18524438	0.0	low	1	2	low_1	01
0	23	ambiguous	illusion	7.115350296739052	1.0	y	2	2	y_2	02
1	24	ambiguous	illusion	4.868096645544028	1.0	y	2	2	y_2	02
2	20	colour	illusion	7.3043088196800445	0.0	y	2	minus	y_2	02
3	11	shape	illusion	6.73799285361747	0.0	y	2	minus	y_2	02
5	3	shape	illusion	9.209539829047573	0.0	y	2	2	y_2	02
6	43	shape	control	6.952181316156384	0.0	y	2	minus	y_2	02
7	37	shape	control	5.114161799352587	1.0	y	2	minus	y_2	02
8	49	colour	control	4.853145405139003	1.0	y	2	minus	y_2	02
9	31	shape	control	4.626597461243363	1.0	y	2	2	y_2	02
11	48	colour	control	7.39570033819291	1.0	y	2	minus	y_2	02
12	17	colour	illusion	6.3348288490824425	0.0	y	2	2	y_2	02
13	8	shape	illusion	10.360187242029497	0.0	y	2	minus	y_2	02
14	6	shape	illusion	14.912588509219859	0.0	y	2	minus	y_2	02
15	39	shape	control	5.584500827044394	1.0	y	2	2	y_2	02
16	19	colour	illusion	8.03237672733303	0.0	y	2	minus	y_2	02
17	5	shape	illusion	6.087973119617344	0.0	y	2	2	y_2	02
18	34	shape	control	6.113128499543564	1.0	y	2	2	y_2	02
19	14	shape	illusion	10.627206905522145	0.0	y	2	2	y_2	02
20	22	colour	illusion	9.034525990934526	0.0	y	2	minus	y_2	02
21	38	shape	control	6.6253048234430025	0.0	y	2	minus	y_2	02
22	16	shape	illusion	4.712443198901383	0.0	y	2	minus	y_2	02
23	36	shape	control	8.674166127054377	1.0	y	2	2	y_2	02
24	42	shape	control	3.4881324503958235	1.0	y	2	2	y_2	02
25	46	colour	control	5.336275468814165	1.0	y	2	minus	y_2	02
26	33	shape	control	5.388419018875538	1.0	y	2	minus	y_2	02
28	10	shape	illusion	5.969754706781714	0.0	y	2	2	y_2	02
29	2	shape	illusion	18.9290840263202	0.0	y	2	minus	y_2	02
30	41	shape	control	2.950718082584899	1.0	y	2	minus	y_2	02
31	18	colour	illusion	7.7936273361692665	1.0	y	2	2	y_2	02
32	32	shape	control	9.712715098577064	0.0	y	2	2	y_2	02
33	12	shape	illusion	7.6531994609013045	1.0	y	2	2	y_2	02
34	1	shape	illusion	16.9438233389601	1.0	y	2	2	y_2	02
35	35	shape	control	6.956782944636871	0.0	y	2	minus	y_2	02
36	7	shape	illusion	4.856394829124838	0.0	y	2	2	y_2	02
37	9	shape	illusion	11.147409335033442	1.0	y	2	minus	y_2	02
38	44	colour	control	4.279390490885817	1.0	y	2	2	y_2	02
39	13	shape	illusion	13.627460975711074	1.0	y	2	minus	y_2	02
41	47	colour	control	6.821089203354858	1.0	y	2	minus	y_2	02
42	4	shape	illusion	15.013067393028905	0.0	y	2	minus	y_2	02
43	15	shape	illusion	4.090614314971391	0.0	y	2	2	y_2	02
44	21	colour	illusion	8.508339337277903	0.0	y	2	2	y_2	02
45	45	colour	control	13.408971959890552	1.0	y	2	2	y_2	02
46	40	shape	control	7.1548486884385065	1.0	y	2	2	y_2	02
47	28	ambiguous	illusion	17.501439325850694	1.0	y	2	2	y_2	02
48	29	ambiguous	illusion	14.772491289890239	1.0	y	2	2	y_2	02
0	23	ambiguous	illusion	5.834013150055398	1.0	y	3	2	y_3	03
1	24	ambiguous	illusion	4.768438323346345	1.0	y	3	2	y_3	03
2	31	shape	control	4.166242135779612	1.0	y	3	2	y_3	03
3	8	shape	illusion	7.021164006153412	1.0	y	3	minus	y_3	03
4	17	colour	illusion	4.6801669650412805	0.0	y	3	2	y_3	03
5	33	shape	control	6.487834211708106	1.0	y	3	minus	y_3	03
6	7	shape	illusion	7.318670471369843	1.0	y	3	2	y_3	03
7	39	shape	control	5.573848113843268	1.0	y	3	2	y_3	03
9	15	shape	illusion	4.008056091566687	0.0	y	3	2	y_3	03
10	46	colour	control	6.387688009912381	1.0	y	3	minus	y_3	03
11	48	colour	control	5.52509338193704	1.0	y	3	minus	y_3	03
12	32	shape	control	3.576097870914964	1.0	y	3	2	y_3	03
13	10	shape	illusion	7.711808631254826	0.0	y	3	2	y_3	03
14	13	shape	illusion	9.686494812027377	1.0	y	3	minus	y_3	03
15	14	shape	illusion	8.699906233108777	0.0	y	3	2	y_3	03
17	41	shape	control	5.183904673835059	1.0	y	3	minus	y_3	03
18	22	colour	illusion	5.627130724988092	1.0	y	3	minus	y_3	03
19	6	shape	illusion	5.8315133749492825	1.0	y	3	minus	y_3	03
21	11	shape	illusion	6.188719445730385	0.0	y	3	minus	y_3	03
22	20	colour	illusion	3.0840964218659783	0.0	y	3	minus	y_3	03
23	21	colour	illusion	7.43180707522697	1.0	y	3	2	y_3	03
24	5	shape	illusion	3.781222875881213	0.0	y	3	2	y_3	03
25	35	shape	control	6.254327094902692	1.0	y	3	minus	y_3	03
26	36	shape	control	3.9249982373112284	1.0	y	3	2	y_3	03
27	1	shape	illusion	5.075465329347935	0.0	y	3	2	y_3	03
28	9	shape	illusion	8.891074801991634	0.0	y	3	minus	y_3	03
29	2	shape	illusion	16.83304954733103	0.0	y	3	minus	y_3	03
30	43	shape	control	4.7465639742222265	1.0	y	3	minus	y_3	03
31	45	colour	control	5.281309592020988	0.0	y	3	2	y_3	03
32	19	colour	illusion	7.8960115437803315	0.0	y	3	minus	y_3	03
34	38	shape	control	10.092477091133333	1.0	y	3	minus	y_3	03
35	44	colour	control	3.696007653714332	1.0	y	3	2	y_3	03
36	40	shape	control	6.341782348968991	1.0	y	3	2	y_3	03
37	4	shape	illusion	8.867881881269568	0.0	y	3	minus	y_3	03
38	37	shape	control	3.54354973738009	1.0	y	3	minus	y_3	03
39	49	colour	control	3.644338611131389	1.0	y	3	minus	y_3	03
40	12	shape	illusion	7.048113680808456	1.0	y	3	2	y_3	03
41	47	colour	control	4.2501343289768565	1.0	y	3	minus	y_3	03
42	3	shape	illusion	10.450245195967	0.0	y	3	2	y_3	03
43	16	shape	illusion	4.0898829007928725	0.0	y	3	minus	y_3	03
44	18	colour	illusion	6.20229741042931	1.0	y	3	2	y_3	03
45	42	shape	control	6.384462088433793	1.0	y	3	2	y_3	03
46	34	shape	control	3.560334983641951	1.0	y	3	2	y_3	03
47	28	ambiguous	illusion	12.44973502951325	1.0	y	3	2	y_3	03
48	29	ambiguous	illusion	5.722975968285028	1.0	y	3	2	y_3	03
0	23	ambiguous	illusion	5.125168415758708	1.0	y	4	2	y_4	04
1	24	ambiguous	illusion	4.844804244664374	1.0	y	4	2	y_4	04
2	49	colour	control	6.091986509720299	1.0	y	4	minus	y_4	04
3	19	colour	illusion	5.520659472553233	0.0	y	4	minus	y_4	04
4	31	shape	control	5.776656694428311	1.0	y	4	2	y_4	04
5	4	shape	illusion	7.2700653321444415	0.0	y	4	minus	y_4	04
6	47	colour	control	5.534009954410067	1.0	y	4	minus	y_4	04
7	6	shape	illusion	7.537321742682253	1.0	y	4	minus	y_4	04
8	9	shape	illusion	10.081320144529855	0.0	y	4	minus	y_4	04
9	15	shape	illusion	4.271528548522838	0.0	y	4	2	y_4	04
10	16	shape	illusion	5.207508475998111	0.0	y	4	minus	y_4	04
11	38	shape	control	6.8668116511089465	1.0	y	4	minus	y_4	04
12	35	shape	control	6.73624096430467	0.0	y	4	minus	y_4	04
13	18	colour	illusion	7.190355090319827	1.0	y	4	2	y_4	04
14	32	shape	control	5.173016523282968	1.0	y	4	2	y_4	04
15	39	shape	control	5.922990893696807	1.0	y	4	2	y_4	04
16	46	colour	control	7.279154616709093	1.0	y	4	minus	y_4	04
17	36	shape	control	6.886356591220647	1.0	y	4	2	y_4	04
18	10	shape	illusion	5.288375594798708	0.0	y	4	2	y_4	04
20	14	shape	illusion	9.682455707415102	1.0	y	4	2	y_4	04
21	2	shape	illusion	10.359144454021587	0.0	y	4	minus	y_4	04
22	13	shape	illusion	9.776391686532406	1.0	y	4	minus	y_4	04
23	33	shape	control	6.701061368778027	1.0	y	4	minus	y_4	04
24	45	colour	control	5.902346616550857	1.0	y	4	2	y_4	04
25	43	shape	control	6.307699694997608	1.0	y	4	minus	y_4	04
26	41	shape	control	4.528435468754652	1.0	y	4	minus	y_4	04
27	22	colour	illusion	8.051279432997035	1.0	y	4	minus	y_4	04
28	1	shape	illusion	7.2905730532356765	1.0	y	4	2	y_4	04
29	37	shape	control	5.63348435541684	1.0	y	4	minus	y_4	04
30	34	shape	control	8.206035534560215	1.0	y	4	2	y_4	04
31	7	shape	illusion	4.352686203502344	0.0	y	4	2	y_4	04
33	5	shape	illusion	5.115484281668613	0.0	y	4	2	y_4	04
34	17	colour	illusion	5.4044944366569325	0.0	y	4	2	y_4	04
35	3	shape	illusion	5.647146039205836	1.0	y	4	2	y_4	04
36	21	colour	illusion	6.308368292900012	0.0	y	4	2	y_4	04
38	12	shape	illusion	8.34968359110826	1.0	y	4	2	y_4	04
39	40	shape	control	6.227928266333947	1.0	y	4	2	y_4	04
41	42	shape	control	4.529407974791866	1.0	y	4	2	y_4	04
42	48	colour	control	4.530880916230672	1.0	y	4	minus	y_4	04
43	8	shape	illusion	5.7776498662187805	0.0	y	4	minus	y_4	04
44	20	colour	illusion	3.7698483417361786	0.0	y	4	minus	y_4	04
45	44	colour	control	4.913743576901652	1.0	y	4	2	y_4	04
46	11	shape	illusion	9.238926499208901	0.0	y	4	minus	y_4	04
47	28	ambiguous	illusion	10.780975431661318	1.0	y	4	2	y_4	04
48	29	ambiguous	illusion	6.633837294066326	1.0	y	4	2	y_4	04
0	23	ambiguous	illusion	7.160550211501686	1.0	n	5	2	n_5	05
1	24	ambiguous	illusion	6.714350663794902	1.0	n	5	2	n_5	05
2	1	shape	illusion	5.034782083683241	0.0	n	5	2	n_5	05
3	36	shape	control	4.2255115888292485	1.0	n	5	2	n_5	05
4	12	shape	illusion	4.709950884393038	0.0	n	5	2	n_5	05
5	33	shape	control	4.995973824999965	0.0	n	5	minus	n_5	05
6	45	colour	control	4.543916549257119	1.0	n	5	2	n_5	05
8	32	shape	control	5.128988743650552	1.0	n	5	2	n_5	05
9	39	shape	control	4.08257346168466	1.0	n	5	2	n_5	05
10	41	shape	control	9.64031256344242	1.0	n	5	minus	n_5	05
11	11	shape	illusion	21.6998988188534	1.0	n	5	minus	n_5	05
12	3	shape	illusion	4.328459457236022	1.0	n	5	2	n_5	05
13	9	shape	illusion	7.73939228908057	0.0	n	5	minus	n_5	05
14	48	colour	control	4.862119309473201	0.0	n	5	minus	n_5	05
15	35	shape	control	5.37119218299631	0.0	n	5	minus	n_5	05
16	6	shape	illusion	8.241153538037906	0.0	n	5	minus	n_5	05
17	43	shape	control	4.325562604873993	0.0	n	5	minus	n_5	05
18	13	shape	illusion	5.134630089094571	1.0	n	5	minus	n_5	05
19	20	colour	illusion	4.016284208406431	1.0	n	5	minus	n_5	05
20	19	colour	illusion	4.084694740486157	1.0	n	5	minus	n_5	05
21	8	shape	illusion	4.65830716684286	0.0	n	5	minus	n_5	05
22	47	colour	control	4.617733404487808	0.0	n	5	minus	n_5	05
23	5	shape	illusion	3.9993780013464857	0.0	n	5	2	n_5	05
25	49	colour	control	10.574080039677938	1.0	n	5	minus	n_5	05
26	31	shape	control	10.910574422847276	1.0	n	5	2	n_5	05
27	17	colour	illusion	5.19494086150371	0.0	n	5	2	n_5	05
28	22	colour	illusion	6.157695501067793	1.0	n	5	minus	n_5	05
30	16	shape	illusion	5.697880868821813	1.0	n	5	minus	n_5	05
31	46	colour	control	4.567034638639598	0.0	n	5	minus	n_5	05
32	21	colour	illusion	7.410136187314492	0.0	n	5	2	n_5	05
33	10	shape	illusion	7.158098685860749	1.0	n	5	2	n_5	05
34	44	colour	control	3.8180878829407447	1.0	n	5	2	n_5	05
35	14	shape	illusion	15.99581336150368	0.0	n	5	2	n_5	05
36	2	shape	illusion	9.308456628863496	1.0	n	5	minus	n_5	05
37	40	shape	control	5.773302764227992	1.0	n	5	2	n_5	05
38	7	shape	illusion	15.615229606646606	1.0	n	5	2	n_5	05
39	42	shape	control	3.575405889579997	1.0	n	5	2	n_5	05
40	34	shape	control	4.011048073807615	1.0	n	5	2	n_5	05
41	15	shape	illusion	3.9494673705994505	0.0	n	5	2	n_5	05
42	37	shape	control	3.9663411607907615	0.0	n	5	minus	n_5	05
43	4	shape	illusion	4.980579864826723	0.0	n	5	minus	n_5	05
44	38	shape	control	10.69350621249032	0.0	n	5	minus	n_5	05
45	18	colour	illusion	6.0633291880258176	1.0	n	5	2	n_5	05
47	28	ambiguous	illusion	8.230288619532075	1.0	n	5	2	n_5	05
48	29	ambiguous	illusion	5.454653866869194	0.0	n	5	2	n_5	05
0	23	ambiguous	illusion	6.1086120012332685	1.0	y	1	2	y_1	06
1	24	ambiguous	illusion	4.730789865679982	1.0	y	1	2	y_1	06
3	21	colour	illusion	6.237012381818204	0.0	y	1	2	y_1	06
4	7	shape	illusion	16.198349793259695	1.0	y	1	2	y_1	06
5	11	shape	illusion	16.493114548437006	0.0	y	1	minus	y_1	06
6	9	shape	illusion	12.467911250940233	0.0	y	1	minus	y_1	06
7	45	colour	control	4.5523990482251975	1.0	y	1	2	y_1	06
8	48	colour	control	8.44448645196826	1.0	y	1	minus	y_1	06
9	44	colour	control	3.999499961908441	1.0	y	1	2	y_1	06
10	46	colour	control	41.014119389968975	1.0	y	1	minus	y_1	06
11	20	colour	illusion	5.93355044873897	0.0	y	1	minus	y_1	06
12	18	colour	illusion	7.815763113234425	1.0	y	1	2	y_1	06
13	40	shape	control	9.052540874261465	1.0	y	1	2	y_1	06
14	2	shape	illusion	12.846762638320794	1.0	y	1	minus	y_1	06
15	12	shape	illusion	9.89968563245202	1.0	y	1	2	y_1	06
17	34	shape	control	18.08510737447068	1.0	y	1	2	y_1	06
18	14	shape	illusion	10.603841783733516	1.0	y	1	2	y_1	06
19	13	shape	illusion	17.634137041226495	0.0	y	1	minus	y_1	06
20	33	shape	control	9.251146359609264	1.0	y	1	minus	y_1	06
21	36	shape	control	15.85073214652948	1.0	y	1	2	y_1	06
22	4	shape	illusion	10.365244192020327	1.0	y	1	minus	y_1	06
23	10	shape	illusion	6.906158167643298	0.0	y	1	2	y_1	06
24	16	shape	illusion	8.106216762054828	0.0	y	1	minus	y_1	06
25	6	shape	illusion	10.183718208681967	0.0	y	1	minus	y_1	06
26	43	shape	control	6.0774341805590675	1.0	y	1	minus	y_1	06
27	31	shape	control	5.740216434634931	1.0	y	1	2	y_1	06
28	41	shape	control	3.388086288585328	1.0	y	1	minus	y_1	06
29	5	shape	illusion	5.695545689864957	0.0	y	1	2	y_1	06
31	17	colour	illusion	11.069083868627787	0.0	y	1	2	y_1	06
32	22	colour	illusion	13.759597975855286	0.0	y	1	minus	y_1	06
33	39	shape	control	5.456886505126021	1.0	y	1	2	y_1	06
34	37	shape	control	4.279612061211083	1.0	y	1	minus	y_1	06
35	15	shape	illusion	4.236082813440588	0.0	y	1	2	y_1	06
36	38	shape	control	9.591712415691289	1.0	y	1	minus	y_1	06
37	42	shape	control	7.116245483855892	1.0	y	1	2	y_1	06
38	47	colour	control	7.064943358731397	1.0	y	1	minus	y_1	06
39	1	shape	illusion	4.7047429058657135	0.0	y	1	2	y_1	06
40	19	colour	illusion	5.084343134731171	0.0	y	1	minus	y_1	06
42	32	shape	control	4.415701844387513	1.0	y	1	2	y_1	06
43	8	shape	illusion	4.100600045705505	0.0	y	1	minus	y_1	06
44	3	shape	illusion	3.5276499992687604	0.0	y	1	2	y_1	06
45	49	colour	control	3.758466204075376	1.0	y	1	minus	y_1	06
46	35	shape	control	5.310863226208311	1.0	y	1	minus	y_1	06
47	28	ambiguous	illusion	14.224436059150321	1.0	y	1	2	y_1	06
48	29	ambiguous	illusion	23.346548683606674	0.0	y	1	2	y_1	06
0	23	ambiguous	illusion	8.579850896261632	1.0	n	1	2	n_1	07
1	24	ambiguous	illusion	10.995528427607496	0.0	n	1	2	n_1	07
3	21	colour	illusion	8.625402178120568	0.0	n	1	2	n_1	07
4	7	shape	illusion	8.099173680981039	0.0	n	1	2	n_1	07
5	11	shape	illusion	23.73598799259344	0.0	n	1	minus	n_1	07
6	9	shape	illusion	8.94031028295285	1.0	n	1	minus	n_1	07
7	45	colour	control	10.35928790362959	0.0	n	1	2	n_1	07
8	48	colour	control	11.342708034484529	1.0	n	1	minus	n_1	07
9	44	colour	control	9.073010829015402	1.0	n	1	2	n_1	07
10	46	colour	control	14.180070037749829	1.0	n	1	minus	n_1	07
11	20	colour	illusion	9.77772982706665	0.0	n	1	minus	n_1	07
12	18	colour	illusion	9.936840812835726	1.0	n	1	2	n_1	07
13	40	shape	control	7.896923671665717	1.0	n	1	2	n_1	07
14	2	shape	illusion	16.292142189107835	1.0	n	1	minus	n_1	07
15	12	shape	illusion	10.882793746044626	1.0	n	1	2	n_1	07
17	34	shape	control	7.168589827750112	1.0	n	1	2	n_1	07
18	14	shape	illusion	18.436072926138877	0.0	n	1	2	n_1	07
19	13	shape	illusion	10.6289381038805	0.0	n	1	minus	n_1	07
20	33	shape	control	10.081614401744446	1.0	n	1	minus	n_1	07
21	36	shape	control	17.89004267747805	0.0	n	1	2	n_1	07
22	4	shape	illusion	14.634382602889671	1.0	n	1	minus	n_1	07
23	10	shape	illusion	14.727906744927168	0.0	n	1	2	n_1	07
24	16	shape	illusion	6.678075558433193	0.0	n	1	minus	n_1	07
25	6	shape	illusion	24.54383964418957	0.0	n	1	minus	n_1	07
26	43	shape	control	7.803953866838127	1.0	n	1	minus	n_1	07
27	31	shape	control	7.8110548939730515	1.0	n	1	2	n_1	07
28	41	shape	control	12.032083076031995	1.0	n	1	minus	n_1	07
29	5	shape	illusion	7.355668908319785	0.0	n	1	2	n_1	07
31	17	colour	illusion	16.40963776818535	0.0	n	1	2	n_1	07
32	22	colour	illusion	19.343231980397828	0.0	n	1	minus	n_1	07
33	39	shape	control	7.0026343173667565	1.0	n	1	2	n_1	07
34	37	shape	control	16.53865691552346	1.0	n	1	minus	n_1	07
35	15	shape	illusion	9.442421464846118	0.0	n	1	2	n_1	07
36	38	shape	control	8.073672143582371	1.0	n	1	minus	n_1	07
37	42	shape	control	6.997876256384188	1.0	n	1	2	n_1	07
38	47	colour	control	12.979739137328579	1.0	n	1	minus	n_1	07
39	1	shape	illusion	8.828313907215488	0.0	n	1	2	n_1	07
40	19	colour	illusion	9.39468849329569	0.0	n	1	minus	n_1	07
42	32	shape	control	6.303559185224002	1.0	n	1	2	n_1	07
43	8	shape	illusion	7.015661646830268	1.0	n	1	minus	n_1	07
44	3	shape	illusion	12.926558830251453	0.0	n	1	2	n_1	07
45	49	colour	control	7.428283434870536	1.0	n	1	minus	n_1	07
46	35	shape	control	8.466637247882318	1.0	n	1	minus	n_1	07
47	28	ambiguous	illusion	17.853250166546786	1.0	n	1	2	n_1	07
48	29	ambiguous	illusion	11.041530311063982	0.0	n	1	2	n_1	07
0	23	ambiguous	illusion	11.389028374237569	1.0	y	5	2	y_5	08
1	24	ambiguous	illusion	6.7397327662429225	1.0	y	5	2	y_5	08
2	1	shape	illusion	6.597606290942168	0.0	y	5	2	y_5	08
3	36	shape	control	6.796742202170208	1.0	y	5	2	y_5	08
4	12	shape	illusion	15.565925467278246	1.0	y	5	2	y_5	08
5	33	shape	control	6.067105869919943	0.0	y	5	minus	y_5	08
6	45	colour	control	28.056331504715672	1.0	y	5	2	y_5	08
8	32	shape	control	7.28161173384251	1.0	y	5	2	y_5	08
9	39	shape	control	4.653279720171668	1.0	y	5	2	y_5	08
10	41	shape	control	3.067214468583188	0.0	y	5	minus	y_5	08
11	11	shape	illusion	6.954443670926594	0.0	y	5	minus	y_5	08
12	3	shape	illusion	10.217369140636038	1.0	y	5	2	y_5	08
13	9	shape	illusion	8.303446143571819	0.0	y	5	minus	y_5	08
14	48	colour	control	11.843958307838873	1.0	y	5	minus	y_5	08
15	35	shape	control	8.007997400115526	1.0	y	5	minus	y_5	08
16	6	shape	illusion	9.01928558287909	0.0	y	5	minus	y_5	08
17	43	shape	control	9.523623451152163	1.0	y	5	minus	y_5	08
18	13	shape	illusion	7.06147575858995	0.0	y	5	minus	y_5	08
19	20	colour	illusion	8.422811068311603	0.0	y	5	minus	y_5	08
20	19	colour	illusion	10.01312504001544	0.0	y	5	minus	y_5	08
21	8	shape	illusion	8.984368275899213	0.0	y	5	minus	y_5	08
22	47	colour	control	5.6498442743786645	1.0	y	5	minus	y_5	08
23	5	shape	illusion	5.639488500292827	0.0	y	5	2	y_5	08
25	49	colour	control	6.191467548855144	1.0	y	5	minus	y_5	08
26	31	shape	control	6.989855750177412	1.0	y	5	2	y_5	08
27	17	colour	illusion	7.562293085101372	0.0	y	5	2	y_5	08
28	22	colour	illusion	13.253433622307966	0.0	y	5	minus	y_5	08
30	16	shape	illusion	6.731031906125281	0.0	y	5	minus	y_5	08
31	46	colour	control	11.024803448574858	1.0	y	5	minus	y_5	08
32	21	colour	illusion	7.7264841344640445	0.0	y	5	2	y_5	08
33	10	shape	illusion	8.370051568156669	1.0	y	5	2	y_5	08
34	44	colour	control	4.091452231580661	1.0	y	5	2	y_5	08
35	14	shape	illusion	22.469540100866645	0.0	y	5	2	y_5	08
36	2	shape	illusion	24.34015451806863	0.0	y	5	minus	y_5	08
37	40	shape	control	7.29704530590334	0.0	y	5	2	y_5	08
38	7	shape	illusion	18.06781743429929	1.0	y	5	2	y_5	08
39	42	shape	control	9.091470871650015	1.0	y	5	2	y_5	08
40	34	shape	control	7.809470938106643	1.0	y	5	2	y_5	08
41	15	shape	illusion	4.849023138809572	0.0	y	5	2	y_5	08
42	37	shape	control	14.506526050307002	1.0	y	5	minus	y_5	08
43	4	shape	illusion	12.10925998114908	0.0	y	5	minus	y_5	08
44	38	shape	control	9.583764418701321	0.0	y	5	minus	y_5	08
45	18	colour	illusion	8.093728751334309	1.0	y	5	2	y_5	08
47	28	ambiguous	illusion	10.090200105194526	1.0	y	5	2	y_5	08
48	29	ambiguous	illusion	9.535036036116251	1.0	y	5	2	y_5	08
0	23	ambiguous	illusion	6.2996788235032	1.0	y	6	2	y_6	09
1	24	ambiguous	illusion	3.718900868059791	1.0	y	6	2	y_6	09
2	47	colour	control	5.510680354420401	1.0	y	6	minus	y_6	09
3	1	shape	illusion	4.414459101661123	0.0	y	6	2	y_6	09
4	46	colour	control	4.355251353228597	1.0	y	6	minus	y_6	09
5	15	shape	illusion	3.828460711190928	0.0	y	6	2	y_6	09
6	13	shape	illusion	8.486013869831368	0.0	y	6	minus	y_6	09
7	35	shape	control	5.96314169451216	1.0	y	6	minus	y_6	09
8	34	shape	control	4.421807746326522	0.0	y	6	2	y_6	09
9	17	colour	illusion	4.7223448234490215	0.0	y	6	2	y_6	09
10	12	shape	illusion	6.257129623851143	0.0	y	6	2	y_6	09
11	16	shape	illusion	4.848720440293619	0.0	y	6	minus	y_6	09
12	2	shape	illusion	17.29683337642018	1.0	y	6	minus	y_6	09
13	39	shape	control	4.7638522053221095	1.0	y	6	2	y_6	09
15	48	colour	control	4.3249855539470445	1.0	y	6	minus	y_6	09
16	3	shape	illusion	4.355223798344014	0.0	y	6	2	y_6	09
17	4	shape	illusion	14.100645027438073	1.0	y	6	minus	y_6	09
18	5	shape	illusion	4.040909684003054	0.0	y	6	2	y_6	09
20	11	shape	illusion	6.665597158929813	0.0	y	6	minus	y_6	09
21	22	colour	illusion	14.811099107626431	0.0	y	6	minus	y_6	09
22	21	colour	illusion	6.455592061276548	0.0	y	6	2	y_6	09
23	14	shape	illusion	6.218834006942417	0.0	y	6	2	y_6	09
24	38	shape	control	7.948822069192829	1.0	y	6	minus	y_6	09
25	9	shape	illusion	6.714059717920463	1.0	y	6	minus	y_6	09
26	31	shape	control	4.037519622725085	1.0	y	6	2	y_6	09
27	41	shape	control	2.568392034692806	1.0	y	6	minus	y_6	09
28	20	colour	illusion	3.301419238658127	0.0	y	6	minus	y_6	09
29	42	shape	control	3.5204380254181165	1.0	y	6	2	y_6	09
30	19	colour	illusion	3.8067089661162754	0.0	y	6	minus	y_6	09
31	44	colour	control	3.61198548343782	1.0	y	6	2	y_6	09
32	49	colour	control	3.4080602900867234	1.0	y	6	minus	y_6	09
33	37	shape	control	3.805120913266365	1.0	y	6	minus	y_6	09
34	18	colour	illusion	5.836698000892284	1.0	y	6	2	y_6	09
35	8	shape	illusion	13.035299833616593	0.0	y	6	minus	y_6	09
36	43	shape	control	4.411935803602318	1.0	y	6	minus	y_6	09
37	36	shape	control	4.997421997388301	1.0	y	6	2	y_6	09
38	33	shape	control	5.313451403313593	1.0	y	6	minus	y_6	09
39	45	colour	control	4.319923154289427	0.0	y	6	2	y_6	09
40	7	shape	illusion	15.559325261912818	0.0	y	6	2	y_6	09
41	10	shape	illusion	4.442471478669177	0.0	y	6	2	y_6	09
42	32	shape	control	4.420595736612086	1.0	y	6	2	y_6	09
44	40	shape	control	7.327368646268951	1.0	y	6	2	y_6	09
45	6	shape	illusion	6.5128981174329965	1.0	y	6	minus	y_6	09
47	28	ambiguous	illusion	9.814898034768703	1.0	y	6	2	y_6	09
48	29	ambiguous	illusion	5.257249163423693	0.0	y	6	2	y_6	09
0	23	ambiguous	illusion	4.782587289862931	1.0	y	7	2	y_7	10
1	24	ambiguous	illusion	4.670537931739091	1.0	y	7	2	y_7	10
2	14	shape	illusion	12.881128079157861	0.0	y	7	2	y_7	10
3	36	shape	control	9.048429781334562	1.0	y	7	2	y_7	10
4	22	colour	illusion	9.455071051983397	0.0	y	7	minus	y_7	10
5	2	shape	illusion	15.029594289097073	1.0	y	7	minus	y_7	10
6	38	shape	control	10.702304565003944	0.0	y	7	minus	y_7	10
7	43	shape	control	21.33725795138343	1.0	y	7	minus	y_7	10
8	12	shape	illusion	31.451718729042117	1.0	y	7	2	y_7	10
9	1	shape	illusion	5.515115844173124	0.0	y	7	2	y_7	10
10	32	shape	control	6.545399804930639	1.0	y	7	2	y_7	10
11	18	colour	illusion	7.239007699441572	1.0	y	7	2	y_7	10
12	44	colour	control	5.070172673198614	1.0	y	7	2	y_7	10
13	40	shape	control	22.23907050737762	1.0	y	7	2	y_7	10
14	31	shape	control	8.874833508318263	1.0	y	7	2	y_7	10
15	42	shape	control	9.211193914032263	1.0	y	7	2	y_7	10
16	8	shape	illusion	10.713220179095517	0.0	y	7	minus	y_7	10
17	7	shape	illusion	11.088607815496287	0.0	y	7	2	y_7	10
21	3	shape	illusion	7.2159624546311525	0.0	y	7	2	y_7	10
22	10	shape	illusion	10.932570210155973	1.0	y	7	2	y_7	10
23	46	colour	control	10.673591613074676	1.0	y	7	minus	y_7	10
24	6	shape	illusion	5.9625915932174385	0.0	y	7	minus	y_7	10
25	11	shape	illusion	11.833815468662578	1.0	y	7	minus	y_7	10
26	37	shape	control	9.998559064380972	1.0	y	7	minus	y_7	10
27	49	colour	control	6.3081847655503225	1.0	y	7	minus	y_7	10
28	33	shape	control	8.037640593538526	1.0	y	7	minus	y_7	10
29	21	colour	illusion	6.400867803071378	0.0	y	7	2	y_7	10
30	4	shape	illusion	8.60620639660192	0.0	y	7	minus	y_7	10
31	15	shape	illusion	4.7673557575235455	0.0	y	7	2	y_7	10
32	19	colour	illusion	9.237857706391877	0.0	y	7	minus	y_7	10
33	17	colour	illusion	5.892093939601183	0.0	y	7	2	y_7	10
34	47	colour	control	6.668318988136889	1.0	y	7	minus	y_7	10
35	45	colour	control	20.280301283590234	1.0	y	7	2	y_7	10
36	5	shape	illusion	5.064619641216269	0.0	y	7	2	y_7	10
37	16	shape	illusion	14.601232413271644	0.0	y	7	minus	y_7	10
38	35	shape	control	7.148369769365673	0.0	y	7	minus	y_7	10
40	48	colour	control	5.362365322562255	1.0	y	7	minus	y_7	10
41	34	shape	control	25.29523133783732	1.0	y	7	2	y_7	10
42	13	shape	illusion	16.943892657591277	1.0	y	7	minus	y_7	10
43	20	colour	illusion	4.710126381723967	0.0	y	7	minus	y_7	10
44	9	shape	illusion	11.218471125166616	0.0	y	7	minus	y_7	10
45	39	shape	control	11.584066396497292	1.0	y	7	2	y_7	10
46	41	shape	control	4.957729448535247	1.0	y	7	minus	y_7	10
47	28	ambiguous	illusion	69.05987176645614	1.0	y	7	2	y_7	10
48	29	ambiguous	illusion	12.834495010010867	0.0	y	7	2	y_7	10
0	23	ambiguous	illusion	8.852231971184663	1.0	y	8	2	y_8	11
1	24	ambiguous	illusion	4.669943079803488	1.0	y	8	2	y_8	11
2	47	colour	control	6.584102055196127	1.0	y	8	minus	y_8	11
3	6	shape	illusion	8.596579763445334	0.0	y	8	minus	y_8	11
4	41	shape	control	6.2393898148220615	0.0	y	8	minus	y_8	11
6	2	shape	illusion	14.791092700055742	0.0	y	8	minus	y_8	11
7	19	colour	illusion	13.46902089721334	0.0	y	8	minus	y_8	11
8	11	shape	illusion	7.044341997720039	0.0	y	8	minus	y_8	11
9	20	colour	illusion	4.676259937328722	0.0	y	8	minus	y_8	11
10	17	colour	illusion	6.808755912559718	0.0	y	8	2	y_8	11
12	22	colour	illusion	6.725840927352692	0.0	y	8	minus	y_8	11
13	35	shape	control	9.8652076855833	0.0	y	8	minus	y_8	11
14	33	shape	control	7.2038194519045655	1.0	y	8	minus	y_8	11
16	3	shape	illusion	8.223898541276867	0.0	y	8	2	y_8	11
17	46	colour	control	6.486491228566593	1.0	y	8	minus	y_8	11
18	38	shape	control	8.5036240179179	1.0	y	8	minus	y_8	11
19	45	colour	control	4.485585173435537	0.0	y	8	2	y_8	11
20	13	shape	illusion	15.637374125803035	0.0	y	8	minus	y_8	11
21	9	shape	illusion	8.805291345754085	0.0	y	8	minus	y_8	11
22	32	shape	control	6.747505613206157	1.0	y	8	2	y_8	11
23	49	colour	control	4.705127680426814	1.0	y	8	minus	y_8	11
24	1	shape	illusion	6.339164070945118	1.0	y	8	2	y_8	11
25	37	shape	control	4.401119845239009	1.0	y	8	minus	y_8	11
26	7	shape	illusion	5.0248516820975055	0.0	y	8	2	y_8	11
27	36	shape	control	4.0937203815010434	0.0	y	8	2	y_8	11
28	16	shape	illusion	8.193577706180804	0.0	y	8	minus	y_8	11
29	14	shape	illusion	11.241014311697654	1.0	y	8	2	y_8	11
30	42	shape	control	3.6919724568979286	1.0	y	8	2	y_8	11
31	31	shape	control	4.640936348816467	0.0	y	8	2	y_8	11
32	21	colour	illusion	7.308438023355848	0.0	y	8	2	y_8	11
33	8	shape	illusion	4.088988310024433	0.0	y	8	minus	y_8	11
35	5	shape	illusion	3.948859752308636	0.0	y	8	2	y_8	11
36	39	shape	control	4.536423132609343	1.0	y	8	2	y_8	11
37	48	colour	control	4.2971889193831885	1.0	y	8	minus	y_8	11
38	44	colour	control	5.426514512077119	1.0	y	8	2	y_8	11
39	10	shape	illusion	6.544201186381542	0.0	y	8	2	y_8	11
40	12	shape	illusion	8.233992384433805	1.0	y	8	2	y_8	11
41	40	shape	control	4.663618523234618	1.0	y	8	2	y_8	11
42	4	shape	illusion	5.886030745095923	0.0	y	8	minus	y_8	11
43	18	colour	illusion	6.2724746043204505	1.0	y	8	2	y_8	11
44	34	shape	control	3.669727911968948	1.0	y	8	2	y_8	11
45	43	shape	control	6.155455314990832	1.0	y	8	minus	y_8	11
46	15	shape	illusion	4.2082378889062975	0.0	y	8	2	y_8	11
47	28	ambiguous	illusion	15.306154650967073	0.0	y	8	2	y_8	11
48	29	ambiguous	illusion	15.956960355226329	0.0	y	8	2	y_8	11
0	23	ambiguous	illusion	4.734748556627892	1.0	y	9	2	y_9	12
1	24	ambiguous	illusion	4.654517001156818	1.0	y	9	2	y_9	12
2	12	shape	illusion	10.988178287662775	1.0	y	9	2	y_9	12
3	46	colour	control	6.719389731553748	0.0	y	9	minus	y_9	12
4	14	shape	illusion	37.3059588335027	1.0	y	9	2	y_9	12
5	17	colour	illusion	7.567137471270144	0.0	y	9	2	y_9	12
6	3	shape	illusion	15.900776471007704	0.0	y	9	2	y_9	12
8	33	shape	control	14.790139280145011	1.0	y	9	minus	y_9	12
9	37	shape	control	7.952331033879091	1.0	y	9	minus	y_9	12
10	38	shape	control	17.07943733609045	1.0	y	9	minus	y_9	12
11	42	shape	control	6.1881505710271085	1.0	y	9	2	y_9	12
12	22	colour	illusion	9.830357171800642	0.0	y	9	minus	y_9	12
13	16	shape	illusion	17.17480525416613	1.0	y	9	minus	y_9	12
14	36	shape	control	12.365334025978882	1.0	y	9	2	y_9	12
15	44	colour	control	4.136342344211698	1.0	y	9	2	y_9	12
16	49	colour	control	6.117140064639897	1.0	y	9	minus	y_9	12
17	40	shape	control	8.388397994676781	1.0	y	9	2	y_9	12
19	31	shape	control	6.262574599892106	1.0	y	9	2	y_9	12
20	32	shape	control	4.260675767232897	1.0	y	9	2	y_9	12
21	9	shape	illusion	18.13552340677961	1.0	y	9	minus	y_9	12
22	10	shape	illusion	7.686951137678079	0.0	y	9	2	y_9	12
23	35	shape	control	9.613915777086733	0.0	y	9	minus	y_9	12
24	47	colour	control	6.798735084073996	1.0	y	9	minus	y_9	12
25	20	colour	illusion	12.850949740501163	1.0	y	9	minus	y_9	12
26	4	shape	illusion	15.819659523014707	1.0	y	9	minus	y_9	12
27	19	colour	illusion	7.904854139179406	1.0	y	9	minus	y_9	12
28	1	shape	illusion	17.971461590577746	1.0	y	9	2	y_9	12
29	41	shape	control	5.116969469558171	0.0	y	9	minus	y_9	12
30	34	shape	control	4.114514683334163	1.0	y	9	2	y_9	12
33	39	shape	control	7.118924626959598	1.0	y	9	2	y_9	12
34	18	colour	illusion	7.087707753201357	1.0	y	9	2	y_9	12
35	7	shape	illusion	8.960805678830184	1.0	y	9	2	y_9	12
36	21	colour	illusion	9.01123982507761	0.0	y	9	2	y_9	12
37	8	shape	illusion	10.314570440775242	1.0	y	9	minus	y_9	12
38	43	shape	control	5.7426644115157615	1.0	y	9	minus	y_9	12
39	5	shape	illusion	5.204002541501723	0.0	y	9	2	y_9	12
40	13	shape	illusion	14.595277555360553	1.0	y	9	minus	y_9	12
41	48	colour	control	6.018458306724824	1.0	y	9	minus	y_9	12
42	45	colour	control	19.862573708421227	0.0	y	9	2	y_9	12
43	15	shape	illusion	7.344692021174524	0.0	y	9	2	y_9	12
44	2	shape	illusion	24.496505434729446	1.0	y	9	minus	y_9	12
45	6	shape	illusion	10.602626110690835	0.0	y	9	minus	y_9	12
46	11	shape	illusion	12.697701059067185	1.0	y	9	minus	y_9	12
47	28	ambiguous	illusion	21.83518327017373	1.0	y	9	2	y_9	12
48	29	ambiguous	illusion	13.807294823959634	0.0	y	9	2	y_9	12
0	23	ambiguous	illusion	5.872624635714601	1.0	y	10	2	y_10	13
1	24	ambiguous	illusion	4.221910162439598	1.0	y	10	2	y_10	13
2	40	shape	control	6.051679368774785	1.0	y	10	2	y_10	13
3	3	shape	illusion	5.538246120479016	0.0	y	10	2	y_10	13
4	14	shape	illusion	15.014476269047007	1.0	y	10	2	y_10	13
5	18	colour	illusion	6.145892021824692	1.0	y	10	2	y_10	13
7	32	shape	control	4.109311735970549	1.0	y	10	2	y_10	13
8	1	shape	illusion	4.605163155352784	0.0	y	10	2	y_10	13
9	19	colour	illusion	4.579316177114379	0.0	y	10	minus	y_10	13
10	8	shape	illusion	4.820584221291939	0.0	y	10	minus	y_10	13
11	9	shape	illusion	7.448488389811247	0.0	y	10	minus	y_10	13
12	42	shape	control	4.707189144155564	1.0	y	10	2	y_10	13
13	41	shape	control	3.414796469125577	1.0	y	10	minus	y_10	13
14	21	colour	illusion	6.779756482614175	0.0	y	10	2	y_10	13
15	49	colour	control	4.906544286644929	0.0	y	10	minus	y_10	13
16	43	shape	control	10.115064153476851	1.0	y	10	minus	y_10	13
17	36	shape	control	4.706998288376782	1.0	y	10	2	y_10	13
18	47	colour	control	8.807350338272952	0.0	y	10	minus	y_10	13
19	35	shape	control	6.666878053289111	0.0	y	10	minus	y_10	13
20	46	colour	control	4.946219596793527	0.0	y	10	minus	y_10	13
21	13	shape	illusion	6.932229584508605	0.0	y	10	minus	y_10	13
22	16	shape	illusion	5.305726645899995	0.0	y	10	minus	y_10	13
23	11	shape	illusion	5.195776292712253	0.0	y	10	minus	y_10	13
24	34	shape	control	5.008969005994004	1.0	y	10	2	y_10	13
25	38	shape	control	6.186522826512372	0.0	y	10	minus	y_10	13
26	44	colour	control	3.823596987152996	1.0	y	10	2	y_10	13
27	48	colour	control	4.082008418725309	0.0	y	10	minus	y_10	13
28	12	shape	illusion	5.921557869416574	1.0	y	10	2	y_10	13
29	2	shape	illusion	9.094221972973171	0.0	y	10	minus	y_10	13
30	37	shape	control	3.4388746883923886	0.0	y	10	minus	y_10	13
32	22	colour	illusion	5.73749185520137	1.0	y	10	minus	y_10	13
33	5	shape	illusion	3.37932282262409	0.0	y	10	2	y_10	13
35	17	colour	illusion	9.361717491301533	0.0	y	10	2	y_10	13
36	31	shape	control	4.634386781595822	1.0	y	10	2	y_10	13
37	33	shape	control	4.648653149808523	0.0	y	10	minus	y_10	13
38	4	shape	illusion	5.671588260465796	1.0	y	10	minus	y_10	13
39	39	shape	control	4.491933810732007	1.0	y	10	2	y_10	13
40	10	shape	illusion	4.423731842362032	0.0	y	10	2	y_10	13
42	6	shape	illusion	5.351303087081759	0.0	y	10	minus	y_10	13
43	7	shape	illusion	4.434206623463979	1.0	y	10	2	y_10	13
44	15	shape	illusion	3.976754900657397	0.0	y	10	2	y_10	13
45	45	colour	control	4.183551392477966	1.0	y	10	2	y_10	13
46	20	colour	illusion	3.618279121106752	1.0	y	10	minus	y_10	13
47	28	ambiguous	illusion	7.859113991551568	1.0	y	10	2	y_10	13
48	29	ambiguous	illusion	6.414592241286299	1.0	y	10	2	y_10	13
0	23	ambiguous	illusion	13.794396389986105	1.0	y	11	2	y_11	14
1	24	ambiguous	illusion	5.102658965346564	1.0	y	11	2	y_11	14
2	22	colour	illusion	11.883702177078705	0.0	y	11	minus	y_11	14
3	39	shape	control	6.976455566532422	1.0	y	11	2	y_11	14
4	32	shape	control	3.561564096308757	1.0	y	11	2	y_11	14
5	8	shape	illusion	6.48880866455238	0.0	y	11	minus	y_11	14
6	10	shape	illusion	5.250646931966912	1.0	y	11	2	y_11	14
7	3	shape	illusion	5.6088746179793825	1.0	y	11	2	y_11	14
8	2	shape	illusion	8.798205042381595	0.0	y	11	minus	y_11	14
9	11	shape	illusion	6.985715223506304	0.0	y	11	minus	y_11	14
10	21	colour	illusion	8.515733434042886	0.0	y	11	2	y_11	14
11	14	shape	illusion	12.412061421458928	1.0	y	11	2	y_11	14
13	6	shape	illusion	11.400090850076596	1.0	y	11	minus	y_11	14
14	38	shape	control	8.802953802613956	0.0	y	11	minus	y_11	14
15	15	shape	illusion	5.894291762467218	0.0	y	11	2	y_11	14
16	33	shape	control	9.675284727056349	1.0	y	11	minus	y_11	14
17	20	colour	illusion	3.2750609651820923	1.0	y	11	minus	y_11	14
18	45	colour	control	3.957347064310852	0.0	y	11	2	y_11	14
19	31	shape	control	5.796584572020037	1.0	y	11	2	y_11	14
20	17	colour	illusion	19.01572451922857	0.0	y	11	2	y_11	14
21	7	shape	illusion	7.019911646072615	1.0	y	11	2	y_11	14
22	42	shape	control	4.1207252445692575	1.0	y	11	2	y_11	14
23	44	colour	control	3.740127044227848	1.0	y	11	2	y_11	14
24	40	shape	control	5.040617926397316	1.0	y	11	2	y_11	14
25	12	shape	illusion	6.470920681642383	0.0	y	11	2	y_11	14
26	19	colour	illusion	5.537434526757351	1.0	y	11	minus	y_11	14
27	47	colour	control	14.038656261725919	1.0	y	11	minus	y_11	14
28	16	shape	illusion	6.889713194170327	1.0	y	11	minus	y_11	14
29	46	colour	control	19.68924775974756	1.0	y	11	minus	y_11	14
31	5	shape	illusion	6.503340219353049	0.0	y	11	2	y_11	14
32	36	shape	control	7.3540600096766875	0.0	y	11	2	y_11	14
33	34	shape	control	5.9064260422837815	1.0	y	11	2	y_11	14
34	49	colour	control	5.829778483039262	1.0	y	11	minus	y_11	14
35	35	shape	control	5.766236918520918	1.0	y	11	minus	y_11	14
36	43	shape	control	4.4981193791072664	0.0	y	11	minus	y_11	14
37	9	shape	illusion	10.938475209923126	0.0	y	11	minus	y_11	14
38	18	colour	illusion	7.8144324382583354	1.0	y	11	2	y_11	14
39	48	colour	control	5.739485582716952	1.0	y	11	minus	y_11	14
40	13	shape	illusion	11.499067996541273	1.0	y	11	minus	y_11	14
41	4	shape	illusion	15.149110828178893	1.0	y	11	minus	y_11	14
43	1	shape	illusion	6.63225534301364	0.0	y	11	2	y_11	14
44	41	shape	control	3.1945237097625068	0.0	y	11	minus	y_11	14
45	37	shape	control	4.038144065041706	0.0	y	11	minus	y_11	14
47	28	ambiguous	illusion	10.577879019467217	0.0	y	11	2	y_11	14
48	29	ambiguous	illusion	12.63395523627878	1.0	y	11	2	y_11	14
0	23	ambiguous	illusion	9.551533307778302	1.0	low	2	2	low_2	15
1	24	ambiguous	illusion	4.955590845616825	1.0	low	2	2	low_2	15
2	20	colour	illusion	6.977379465613923	0.0	low	2	minus	low_2	15
3	11	shape	illusion	8.604948046882782	0.0	low	2	minus	low_2	15
5	3	shape	illusion	8.262496748116973	0.0	low	2	2	low_2	15
6	43	shape	control	6.17398235352448	0.0	low	2	minus	low_2	15
7	37	shape	control	9.666316827686387	1.0	low	2	minus	low_2	15
8	49	colour	control	4.667106599314137	1.0	low	2	minus	low_2	15
9	31	shape	control	7.227526762682828	1.0	low	2	2	low_2	15
11	48	colour	control	5.316081273944292	1.0	low	2	minus	low_2	15
12	17	colour	illusion	5.808077390327527	0.0	low	2	2	low_2	15
13	8	shape	illusion	4.5025715191077325	0.0	low	2	minus	low_2	15
14	6	shape	illusion	6.3654657059196325	0.0	low	2	minus	low_2	15
15	39	shape	control	8.258464820108202	0.0	low	2	2	low_2	15
16	19	colour	illusion	9.68925343281444	1.0	low	2	minus	low_2	15
17	5	shape	illusion	3.95577522021631	0.0	low	2	2	low_2	15
18	34	shape	control	4.717205837419897	1.0	low	2	2	low_2	15
19	14	shape	illusion	24.059875549173736	1.0	low	2	2	low_2	15
20	22	colour	illusion	7.417721518988402	0.0	low	2	minus	low_2	15
21	38	shape	control	15.215860105468893	1.0	low	2	minus	low_2	15
22	16	shape	illusion	6.4295121731775	1.0	low	2	minus	low_2	15
23	36	shape	control	6.517713738783642	0.0	low	2	2	low_2	15
24	42	shape	control	6.437319120414032	1.0	low	2	2	low_2	15
25	46	colour	control	6.1865469758085965	1.0	low	2	minus	low_2	15
26	33	shape	control	6.922984907218051	1.0	low	2	minus	low_2	15
28	10	shape	illusion	6.165050518640782	0.0	low	2	2	low_2	15
29	2	shape	illusion	10.66135411187497	1.0	low	2	minus	low_2	15
30	41	shape	control	3.3261104416014864	1.0	low	2	minus	low_2	15
31	18	colour	illusion	6.805710506756442	1.0	low	2	2	low_2	15
32	32	shape	control	4.6644159458483045	1.0	low	2	2	low_2	15
33	12	shape	illusion	6.703007777770837	1.0	low	2	2	low_2	15
34	1	shape	illusion	10.460880167858702	1.0	low	2	2	low_2	15
35	35	shape	control	6.805091332287702	1.0	low	2	minus	low_2	15
36	7	shape	illusion	5.3048567105433895	0.0	low	2	2	low_2	15
37	9	shape	illusion	6.583537090900791	0.0	low	2	minus	low_2	15
38	44	colour	control	4.403880051966553	1.0	low	2	2	low_2	15
39	13	shape	illusion	14.836652211157345	0.0	low	2	minus	low_2	15
41	47	colour	control	4.425955972154043	1.0	low	2	minus	low_2	15
42	4	shape	illusion	7.165082936149702	1.0	low	2	minus	low_2	15
43	15	shape	illusion	4.117943416851632	0.0	low	2	2	low_2	15
44	21	colour	illusion	7.995268664180911	0.0	low	2	2	low_2	15
45	45	colour	control	5.138261092259199	1.0	low	2	2	low_2	15
46	40	shape	control	6.557233521976742	1.0	low	2	2	low_2	15
47	28	ambiguous	illusion	10.998717076978211	1.0	low	2	2	low_2	15
48	29	ambiguous	illusion	7.133541507788322	0.0	low	2	2	low_2	15
0	23	ambiguous	illusion	16.040173401270295	1.0	y	12	2	y_12	16
1	24	ambiguous	illusion	10.32628752225719	1.0	y	12	2	y_12	16
2	43	shape	control	18.41949273078353	1.0	y	12	minus	y_12	16
3	38	shape	control	17.733138639159733	1.0	y	12	minus	y_12	16
4	21	colour	illusion	8.750700015632901	0.0	y	12	2	y_12	16
5	45	colour	control	7.383081381733064	1.0	y	12	2	y_12	16
6	39	shape	control	7.190934280777582	1.0	y	12	2	y_12	16
7	18	colour	illusion	13.29800689034164	0.0	y	12	2	y_12	16
8	10	shape	illusion	7.957110416478827	0.0	y	12	2	y_12	16
9	34	shape	control	6.070770669612102	1.0	y	12	2	y_12	16
10	47	colour	control	6.919739914301318	0.0	y	12	minus	y_12	16
11	12	shape	illusion	11.683926830432027	0.0	y	12	2	y_12	16
12	7	shape	illusion	11.209358368301764	0.0	y	12	2	y_12	16
13	36	shape	control	7.1650298524764375	1.0	y	12	2	y_12	16
14	13	shape	illusion	8.22732010105392	0.0	y	12	minus	y_12	16
15	22	colour	illusion	12.113763583955006	1.0	y	12	minus	y_12	16
16	14	shape	illusion	17.754525282012764	0.0	y	12	2	y_12	16
18	6	shape	illusion	8.181835090494133	1.0	y	12	minus	y_12	16
19	16	shape	illusion	11.003132342069875	1.0	y	12	minus	y_12	16
20	32	shape	control	5.612109075198532	1.0	y	12	2	y_12	16
21	48	colour	control	6.246848815266277	0.0	y	12	minus	y_12	16
22	40	shape	control	8.399477348662911	1.0	y	12	2	y_12	16
23	41	shape	control	13.435838450575831	0.0	y	12	minus	y_12	16
24	5	shape	illusion	9.42143859191856	0.0	y	12	2	y_12	16
25	3	shape	illusion	11.064788423056598	0.0	y	12	2	y_12	16
26	17	colour	illusion	12.658574310247786	0.0	y	12	2	y_12	16
27	1	shape	illusion	8.315927695977733	0.0	y	12	2	y_12	16
29	19	colour	illusion	19.719603112404002	1.0	y	12	minus	y_12	16
30	4	shape	illusion	10.99902869030484	1.0	y	12	minus	y_12	16
31	35	shape	control	6.2804807679058285	0.0	y	12	minus	y_12	16
32	44	colour	control	5.684799671944347	1.0	y	12	2	y_12	16
33	46	colour	control	7.009614628725102	0.0	y	12	minus	y_12	16
34	33	shape	control	6.89269479480572	0.0	y	12	minus	y_12	16
35	15	shape	illusion	6.1303731012449125	0.0	y	12	2	y_12	16
38	37	shape	control	7.997999839528347	1.0	y	12	minus	y_12	16
39	8	shape	illusion	13.278868401917864	0.0	y	12	minus	y_12	16
40	11	shape	illusion	23.64514535605849	0.0	y	12	minus	y_12	16
41	31	shape	control	7.4636214736819975	1.0	y	12	2	y_12	16
42	2	shape	illusion	20.25401997406152	1.0	y	12	minus	y_12	16
43	20	colour	illusion	9.640860166255152	0.0	y	12	minus	y_12	16
44	49	colour	control	7.331132724590133	0.0	y	12	minus	y_12	16
45	9	shape	illusion	18.192823411285644	1.0	y	12	minus	y_12	16
46	42	shape	control	5.501280896918615	1.0	y	12	2	y_12	16
47	28	ambiguous	illusion	28.376936237182235	1.0	y	12	2	y_12	16
48	29	ambiguous	illusion	40.50745886420191	0.0	y	12	2	y_12	16
0	23	ambiguous	illusion	7.962976365190116	1.0	n	2	2	n_2	17
1	24	ambiguous	illusion	8.075690432204283	1.0	n	2	2	n_2	17
2	20	colour	illusion	5.0590468765294645	0.0	n	2	minus	n_2	17
3	11	shape	illusion	6.403863437997643	0.0	n	2	minus	n_2	17
5	3	shape	illusion	15.233233460385234	1.0	n	2	2	n_2	17
6	43	shape	control	16.912593473869492	1.0	n	2	minus	n_2	17
7	37	shape	control	6.335637543044868	1.0	n	2	minus	n_2	17
8	49	colour	control	10.34416983211122	1.0	n	2	minus	n_2	17
9	31	shape	control	6.8597776482783965	1.0	n	2	2	n_2	17
11	48	colour	control	15.654911536665168	1.0	n	2	minus	n_2	17
12	17	colour	illusion	7.111554330535	0.0	n	2	2	n_2	17
13	8	shape	illusion	14.243751322035678	1.0	n	2	minus	n_2	17
14	6	shape	illusion	9.465778453857636	0.0	n	2	minus	n_2	17
15	39	shape	control	8.132097307636286	1.0	n	2	2	n_2	17
16	19	colour	illusion	13.088855183683336	0.0	n	2	minus	n_2	17
17	5	shape	illusion	5.4700911985564735	0.0	n	2	2	n_2	17
18	34	shape	control	5.728364350143237	1.0	n	2	2	n_2	17
19	14	shape	illusion	20.788214775748198	0.0	n	2	2	n_2	17
20	22	colour	illusion	18.05339326251124	1.0	n	2	minus	n_2	17
21	38	shape	control	8.972670822055077	1.0	n	2	minus	n_2	17
22	16	shape	illusion	5.933707404401503	0.0	n	2	minus	n_2	17
23	36	shape	control	5.697318909704336	1.0	n	2	2	n_2	17
24	42	shape	control	4.157957972318401	1.0	n	2	2	n_2	17
25	46	colour	control	7.532805306109368	0.0	n	2	minus	n_2	17
26	33	shape	control	10.417152996873485	1.0	n	2	minus	n_2	17
28	10	shape	illusion	12.574687515443655	1.0	n	2	2	n_2	17
29	2	shape	illusion	14.576383356528824	1.0	n	2	minus	n_2	17
30	41	shape	control	8.137654884791116	1.0	n	2	minus	n_2	17
31	18	colour	illusion	10.13983131547866	0.0	n	2	2	n_2	17
32	32	shape	control	14.337338246739822	0.0	n	2	2	n_2	17
33	12	shape	illusion	7.194602322226274	0.0	n	2	2	n_2	17
34	1	shape	illusion	9.585834682045972	0.0	n	2	2	n_2	17
35	35	shape	control	10.364688090863636	1.0	n	2	minus	n_2	17
36	7	shape	illusion	11.169862898241265	1.0	n	2	2	n_2	17
37	9	shape	illusion	11.89119589011534	0.0	n	2	minus	n_2	17
38	44	colour	control	5.400528486483381	1.0	n	2	2	n_2	17
39	13	shape	illusion	9.977890851863775	1.0	n	2	minus	n_2	17
41	47	colour	control	8.007235588593176	1.0	n	2	minus	n_2	17
42	4	shape	illusion	10.055145429010736	0.0	n	2	minus	n_2	17
43	15	shape	illusion	5.362488157465123	0.0	n	2	2	n_2	17
44	21	colour	illusion	7.3296496234252135	0.0	n	2	2	n_2	17
45	45	colour	control	9.189975127665091	0.0	n	2	2	n_2	17
46	40	shape	control	7.090141753666103	1.0	n	2	2	n_2	17
47	28	ambiguous	illusion	8.568911525318981	1.0	n	2	2	n_2	17
48	29	ambiguous	illusion	7.205331708144512	0.0	n	2	2	n_2	17
0	23	ambiguous	illusion	6.69195790183403	1.0	y	13	2	y_13	18
1	24	ambiguous	illusion	4.433333698023488	1.0	y	13	2	y_13	18
2	11	shape	illusion	6.243463645090742	1.0	y	13	minus	y_13	18
3	44	colour	control	3.7083126169281964	1.0	y	13	2	y_13	18
4	15	shape	illusion	3.488566773277853	0.0	y	13	2	y_13	18
5	36	shape	control	4.639737164034159	1.0	y	13	2	y_13	18
6	47	colour	control	5.911132398187875	1.0	y	13	minus	y_13	18
7	14	shape	illusion	6.107536476068161	0.0	y	13	2	y_13	18
8	17	colour	illusion	4.4536914910986525	0.0	y	13	2	y_13	18
9	7	shape	illusion	5.220286800135	0.0	y	13	2	y_13	18
10	18	colour	illusion	6.372904198835387	1.0	y	13	2	y_13	18
11	22	colour	illusion	6.156635469483263	0.0	y	13	minus	y_13	18
12	20	colour	illusion	3.4831341114186216	0.0	y	13	minus	y_13	18
14	38	shape	control	10.582577311191015	1.0	y	13	minus	y_13	18
15	19	colour	illusion	7.708564658077194	0.0	y	13	minus	y_13	18
16	10	shape	illusion	4.750884068770574	0.0	y	13	2	y_13	18
17	3	shape	illusion	4.469900735498413	0.0	y	13	2	y_13	18
18	48	colour	control	4.876736075232658	1.0	y	13	minus	y_13	18
19	2	shape	illusion	8.585731067231789	0.0	y	13	minus	y_13	18
20	5	shape	illusion	3.814501361711336	0.0	y	13	2	y_13	18
21	40	shape	control	4.748939867115041	1.0	y	13	2	y_13	18
22	41	shape	control	2.6747445449500447	1.0	y	13	minus	y_13	18
23	39	shape	control	4.16737193615063	1.0	y	13	2	y_13	18
24	31	shape	control	3.963120950170378	1.0	y	13	2	y_13	18
25	33	shape	control	5.0160074493960565	1.0	y	13	minus	y_13	18
26	35	shape	control	5.157229913798801	1.0	y	13	minus	y_13	18
27	46	colour	control	4.845125576868668	1.0	y	13	minus	y_13	18
28	21	colour	illusion	9.917994643922613	1.0	y	13	2	y_13	18
29	9	shape	illusion	6.1405575133994725	1.0	y	13	minus	y_13	18
31	6	shape	illusion	5.452332413909971	1.0	y	13	minus	y_13	18
32	32	shape	control	3.5164027325799907	1.0	y	13	2	y_13	18
34	34	shape	control	4.107816071554225	1.0	y	13	2	y_13	18
36	8	shape	illusion	5.577637790936024	0.0	y	13	minus	y_13	18
37	12	shape	illusion	5.928786624476743	0.0	y	13	2	y_13	18
38	45	colour	control	4.797955387096408	1.0	y	13	2	y_13	18
39	37	shape	control	3.9609741430904246	1.0	y	13	minus	y_13	18
40	42	shape	control	3.327364577521621	1.0	y	13	2	y_13	18
41	16	shape	illusion	7.1128001650013175	0.0	y	13	minus	y_13	18
42	1	shape	illusion	4.331969798824503	0.0	y	13	2	y_13	18
43	13	shape	illusion	6.673633862011229	1.0	y	13	minus	y_13	18
44	4	shape	illusion	5.178082469322362	1.0	y	13	minus	y_13	18
45	49	colour	control	3.538182005315321	1.0	y	13	minus	y_13	18
46	43	shape	control	4.720266742197963	1.0	y	13	minus	y_13	18
47	28	ambiguous	illusion	7.366926528384282	0.0	y	13	2	y_13	18
48	29	ambiguous	illusion	3.322264593770342	0.0	y	13	2	y_13	18
0	23	ambiguous	illusion	5.022089259033237	1.0	low	3	2	low_3	19
1	24	ambiguous	illusion	4.751619526461583	1.0	low	3	2	low_3	19
2	31	shape	control	5.9046919769461965	1.0	low	3	2	low_3	19
3	8	shape	illusion	6.7118306575248425	0.0	low	3	minus	low_3	19
4	17	colour	illusion	6.173491025187103	0.0	low	3	2	low_3	19
5	33	shape	control	6.6312662312266175	0.0	low	3	minus	low_3	19
6	7	shape	illusion	6.813377712027433	1.0	low	3	2	low_3	19
7	39	shape	control	6.59708102312652	1.0	low	3	2	low_3	19
9	15	shape	illusion	5.254993109389034	0.0	low	3	2	low_3	19
10	46	colour	control	6.810876345454744	0.0	low	3	minus	low_3	19
11	48	colour	control	20.773994459148525	1.0	low	3	minus	low_3	19
12	32	shape	control	8.64230579560899	1.0	low	3	2	low_3	19
13	10	shape	illusion	6.644504874890117	0.0	low	3	2	low_3	19
14	13	shape	illusion	7.588388034771924	0.0	low	3	minus	low_3	19
15	14	shape	illusion	8.635279034271662	1.0	low	3	2	low_3	19
17	41	shape	control	4.077809802944103	0.0	low	3	minus	low_3	19
18	22	colour	illusion	10.659374087008473	1.0	low	3	minus	low_3	19
19	6	shape	illusion	9.607837750332694	0.0	low	3	minus	low_3	19
21	11	shape	illusion	15.193341899492225	1.0	low	3	minus	low_3	19
22	20	colour	illusion	5.070210883881373	1.0	low	3	minus	low_3	19
23	21	colour	illusion	6.6016554484049275	0.0	low	3	2	low_3	19
24	5	shape	illusion	4.791130015546514	0.0	low	3	2	low_3	19
25	35	shape	control	6.205183781356027	0.0	low	3	minus	low_3	19
26	36	shape	control	11.754728709311163	1.0	low	3	2	low_3	19
27	1	shape	illusion	6.1210518787374895	0.0	low	3	2	low_3	19
28	9	shape	illusion	10.225306552136317	0.0	low	3	minus	low_3	19
29	2	shape	illusion	20.258677286430608	0.0	low	3	minus	low_3	19
30	43	shape	control	10.269483044154184	1.0	low	3	minus	low_3	19
31	45	colour	control	6.316844088236394	0.0	low	3	2	low_3	19
32	19	colour	illusion	6.972612609108182	1.0	low	3	minus	low_3	19
34	38	shape	control	20.396998846365022	0.0	low	3	minus	low_3	19
35	44	colour	control	4.756779886629374	0.0	low	3	2	low_3	19
36	40	shape	control	6.973748820328183	1.0	low	3	2	low_3	19
37	4	shape	illusion	17.941543472439662	1.0	low	3	minus	low_3	19
38	37	shape	control	5.860595311467477	0.0	low	3	minus	low_3	19
39	49	colour	control	9.594015197835688	1.0	low	3	minus	low_3	19
40	12	shape	illusion	8.235861889555963	1.0	low	3	2	low_3	19
41	47	colour	control	11.708149316957133	0.0	low	3	minus	low_3	19
42	3	shape	illusion	8.716392116053612	1.0	low	3	2	low_3	19
43	16	shape	illusion	7.15841110342808	1.0	low	3	minus	low_3	19
44	18	colour	illusion	6.457226145335881	1.0	low	3	2	low_3	19
45	42	shape	control	5.421463856611808	1.0	low	3	2	low_3	19
46	34	shape	control	14.52325363241107	0.0	low	3	2	low_3	19
47	28	ambiguous	illusion	23.81898258849469	1.0	low	3	2	low_3	19
48	29	ambiguous	illusion	23.18210094531605	0.0	low	3	2	low_3	19
0	23	ambiguous	illusion	8.635845031954888	1.0	y	14	2	y_14	20
1	24	ambiguous	illusion	5.390476259941352	1.0	y	14	2	y_14	20
2	36	shape	control	5.646869777762731	1.0	y	14	2	y_14	20
3	5	shape	illusion	5.491511508980694	0.0	y	14	2	y_14	20
4	14	shape	illusion	12.018308931150385	1.0	y	14	2	y_14	20
5	47	colour	control	8.44489936834725	0.0	y	14	minus	y_14	20
7	43	shape	control	24.09120954108312	1.0	y	14	minus	y_14	20
8	37	shape	control	7.1915980633857535	1.0	y	14	minus	y_14	20
9	15	shape	illusion	8.716707350478826	0.0	y	14	2	y_14	20
10	3	shape	illusion	9.655529675679645	1.0	y	14	2	y_14	20
11	35	shape	control	9.619149270689377	1.0	y	14	minus	y_14	20
12	7	shape	illusion	10.420367515839645	1.0	y	14	2	y_14	20
13	11	shape	illusion	9.190260846450657	0.0	y	14	minus	y_14	20
14	39	shape	control	6.321468166943305	1.0	y	14	2	y_14	20
15	31	shape	control	4.858323891771762	1.0	y	14	2	y_14	20
16	8	shape	illusion	4.525950112893952	0.0	y	14	minus	y_14	20
17	33	shape	control	14.604798096451304	1.0	y	14	minus	y_14	20
18	41	shape	control	6.3407001829955325	1.0	y	14	minus	y_14	20
20	2	shape	illusion	13.84301964655333	0.0	y	14	minus	y_14	20
21	6	shape	illusion	14.667296374277614	1.0	y	14	minus	y_14	20
22	17	colour	illusion	7.216100740250112	1.0	y	14	2	y_14	20
23	12	shape	illusion	11.692861125564376	0.0	y	14	2	y_14	20
24	49	colour	control	8.58419563564803	1.0	y	14	minus	y_14	20
25	19	colour	illusion	8.91836574260924	0.0	y	14	minus	y_14	20
26	9	shape	illusion	6.536943251754566	0.0	y	14	minus	y_14	20
27	10	shape	illusion	6.7244854956534255	0.0	y	14	2	y_14	20
30	34	shape	control	6.943389934079278	1.0	y	14	2	y_14	20
31	38	shape	control	11.232238922576473	0.0	y	14	minus	y_14	20
32	42	shape	control	4.4172915116705544	1.0	y	14	2	y_14	20
33	22	colour	illusion	11.07952631723947	1.0	y	14	minus	y_14	20
34	20	colour	illusion	5.5040570351384295	0.0	y	14	minus	y_14	20
35	46	colour	control	6.53470604730046	0.0	y	14	minus	y_14	20
36	44	colour	control	5.6649919037590735	1.0	y	14	2	y_14	20
37	32	shape	control	4.369880687831937	1.0	y	14	2	y_14	20
38	18	colour	illusion	7.439453248464815	1.0	y	14	2	y_14	20
39	45	colour	control	6.046715876250347	1.0	y	14	2	y_14	20
40	16	shape	illusion	5.404406008236947	0.0	y	14	minus	y_14	20
41	13	shape	illusion	9.68435845194108	1.0	y	14	minus	y_14	20
42	1	shape	illusion	8.00679914029115	0.0	y	14	2	y_14	20
43	21	colour	illusion	7.160010568065445	0.0	y	14	2	y_14	20
44	40	shape	control	9.263332863281905	1.0	y	14	2	y_14	20
45	48	colour	control	7.845267791873994	1.0	y	14	minus	y_14	20
46	4	shape	illusion	6.019639259392535	0.0	y	14	minus	y_14	20
47	28	ambiguous	illusion	10.406192611106237	1.0	y	14	2	y_14	20
48	29	ambiguous	illusion	6.561904634550957	0.0	y	14	2	y_14	20
0	23	ambiguous	illusion	8.860000680764642	1.0	n	3	2	n_3	21
1	24	ambiguous	illusion	4.667866920171947	1.0	n	3	2	n_3	21
2	31	shape	control	6.061422020802637	1.0	n	3	2	n_3	21
3	8	shape	illusion	7.270443210423764	1.0	n	3	minus	n_3	21
4	17	colour	illusion	8.415928360831458	0.0	n	3	2	n_3	21
5	33	shape	control	6.4442550729145305	1.0	n	3	minus	n_3	21
6	7	shape	illusion	6.332300839772871	1.0	n	3	2	n_3	21
7	39	shape	control	5.105497501430363	1.0	n	3	2	n_3	21
9	15	shape	illusion	7.73976664348811	0.0	n	3	2	n_3	21
10	46	colour	control	5.2544051167606085	0.0	n	3	minus	n_3	21
11	48	colour	control	7.794639948260738	1.0	n	3	minus	n_3	21
12	32	shape	control	6.162738085396995	1.0	n	3	2	n_3	21
13	10	shape	illusion	5.4065856718425485	1.0	n	3	2	n_3	21
14	13	shape	illusion	6.555416295894247	0.0	n	3	minus	n_3	21
15	14	shape	illusion	20.40265830622411	1.0	n	3	2	n_3	21
17	41	shape	control	5.86646389595262	0.0	n	3	minus	n_3	21
18	22	colour	illusion	15.154294978709006	0.0	n	3	minus	n_3	21
19	6	shape	illusion	8.039834071640144	1.0	n	3	minus	n_3	21
21	11	shape	illusion	8.686555539887197	1.0	n	3	minus	n_3	21
22	20	colour	illusion	6.680998390476817	0.0	n	3	minus	n_3	21
23	21	colour	illusion	7.1215992142024325	0.0	n	3	2	n_3	21
24	5	shape	illusion	5.704374158160134	0.0	n	3	2	n_3	21
25	35	shape	control	8.022254126328335	1.0	n	3	minus	n_3	21
26	36	shape	control	7.365421271959349	1.0	n	3	2	n_3	21
27	1	shape	illusion	7.529906248935732	0.0	n	3	2	n_3	21
28	9	shape	illusion	8.790156219354685	0.0	n	3	minus	n_3	21
29	2	shape	illusion	26.95763169966085	0.0	n	3	minus	n_3	21
30	43	shape	control	5.795582888809804	1.0	n	3	minus	n_3	21
31	45	colour	control	8.317786362980769	0.0	n	3	2	n_3	21
32	19	colour	illusion	6.2037063601292175	1.0	n	3	minus	n_3	21
34	38	shape	control	7.506470914317106	1.0	n	3	minus	n_3	21
35	44	colour	control	5.8691180689602325	1.0	n	3	2	n_3	21
36	40	shape	control	7.626614993363546	1.0	n	3	2	n_3	21
37	4	shape	illusion	26.251584399460626	0.0	n	3	minus	n_3	21
38	37	shape	control	5.262744487828968	1.0	n	3	minus	n_3	21
39	49	colour	control	5.127174598390411	1.0	n	3	minus	n_3	21
40	12	shape	illusion	11.877083019289785	0.0	n	3	2	n_3	21
41	47	colour	control	6.654411681278361	1.0	n	3	minus	n_3	21
42	3	shape	illusion	7.071101850546256	1.0	n	3	2	n_3	21
43	16	shape	illusion	6.327022074616253	0.0	n	3	minus	n_3	21
44	18	colour	illusion	8.034940668090712	1.0	n	3	2	n_3	21
45	42	shape	control	4.513393645867836	1.0	n	3	2	n_3	21
46	34	shape	control	4.863878204660068	1.0	n	3	2	n_3	21
47	28	ambiguous	illusion	8.934628731849443	1.0	n	3	2	n_3	21
48	29	ambiguous	illusion	11.505741523260438	0.0	n	3	2	n_3	21
0	23	ambiguous	illusion	12.45764750313174	1.0	y	15	2	y_15	22
1	24	ambiguous	illusion	5.391740132554332	1.0	y	15	2	y_15	22
2	15	shape	illusion	5.1206214249705235	0.0	y	15	2	y_15	22
3	42	shape	control	4.9822976790783295	1.0	y	15	2	y_15	22
4	43	shape	control	4.368234695348292	1.0	y	15	minus	y_15	22
5	48	colour	control	4.25412227511697	1.0	y	15	minus	y_15	22
6	34	shape	control	3.5257762746914523	1.0	y	15	2	y_15	22
7	19	colour	illusion	5.990621651892071	0.0	y	15	minus	y_15	22
8	33	shape	control	4.3729765476473395	1.0	y	15	minus	y_15	22
9	36	shape	control	4.07780900652142	0.0	y	15	2	y_15	22
10	22	colour	illusion	6.092188951184652	1.0	y	15	minus	y_15	22
11	1	shape	illusion	4.392695634836855	0.0	y	15	2	y_15	22
12	5	shape	illusion	3.8824241879028714	0.0	y	15	2	y_15	22
13	14	shape	illusion	21.444024909515065	1.0	y	15	2	y_15	22
14	38	shape	control	5.499654349681804	0.0	y	15	minus	y_15	22
15	11	shape	illusion	6.733484965629032	1.0	y	15	minus	y_15	22
16	49	colour	control	2.8726592625371272	1.0	y	15	minus	y_15	22
17	9	shape	illusion	7.514352795107698	0.0	y	15	minus	y_15	22
18	17	colour	illusion	4.854895348591526	0.0	y	15	2	y_15	22
19	10	shape	illusion	4.1490137822493125	0.0	y	15	2	y_15	22
20	20	colour	illusion	2.9632188351461077	0.0	y	15	minus	y_15	22
21	12	shape	illusion	6.196267787010584	1.0	y	15	2	y_15	22
23	4	shape	illusion	33.14389629355901	0.0	y	15	minus	y_15	22
24	2	shape	illusion	10.296271352923213	0.0	y	15	minus	y_15	22
25	45	colour	control	4.40835647124004	0.0	y	15	2	y_15	22
26	37	shape	control	4.956001105432733	0.0	y	15	minus	y_15	22
27	21	colour	illusion	5.588527813300972	1.0	y	15	2	y_15	22
28	3	shape	illusion	3.779311795226022	1.0	y	15	2	y_15	22
29	35	shape	control	8.163038351382056	1.0	y	15	minus	y_15	22
30	31	shape	control	4.729607846951693	1.0	y	15	2	y_15	22
31	32	shape	control	3.972861384903808	1.0	y	15	2	y_15	22
33	39	shape	control	4.818258441080616	1.0	y	15	2	y_15	22
34	18	colour	illusion	6.353178443090656	1.0	y	15	2	y_15	22
35	41	shape	control	3.6595372743140615	1.0	y	15	minus	y_15	22
36	46	colour	control	8.865409115443981	0.0	y	15	minus	y_15	22
38	6	shape	illusion	6.227466678985365	1.0	y	15	minus	y_15	22
39	47	colour	control	4.278951962305655	1.0	y	15	minus	y_15	22
40	13	shape	illusion	15.243244623172359	0.0	y	15	minus	y_15	22
42	7	shape	illusion	8.3571434939131	1.0	y	15	2	y_15	22
43	44	colour	control	3.78957108564282	1.0	y	15	2	y_15	22
44	40	shape	control	4.6516618769983324	1.0	y	15	2	y_15	22
45	16	shape	illusion	6.945296886473442	0.0	y	15	minus	y_15	22
46	8	shape	illusion	3.5969024382739008	0.0	y	15	minus	y_15	22
47	28	ambiguous	illusion	7.751917893259815	1.0	y	15	2	y_15	22
48	29	ambiguous	illusion	4.401576781376207	0.0	y	15	2	y_15	22
0	23	ambiguous	illusion	3.5137125518449466	1.0	low	4	2	low_4	23
1	24	ambiguous	illusion	3.9818081766352407	1.0	low	4	2	low_4	23
2	49	colour	control	7.12549456765555	1.0	low	4	minus	low_4	23
3	19	colour	illusion	5.340265790098783	0.0	low	4	minus	low_4	23
4	31	shape	control	4.7076434509581295	1.0	low	4	2	low_4	23
5	4	shape	illusion	5.232522574653559	0.0	low	4	minus	low_4	23
6	47	colour	control	6.226255484616559	1.0	low	4	minus	low_4	23
7	6	shape	illusion	5.404895510677306	1.0	low	4	minus	low_4	23
8	9	shape	illusion	7.168409100857389	1.0	low	4	minus	low_4	23
9	15	shape	illusion	3.9629238369852833	0.0	low	4	2	low_4	23
10	16	shape	illusion	4.248418842278625	0.0	low	4	minus	low_4	23
11	38	shape	control	5.687727428183281	0.0	low	4	minus	low_4	23
12	35	shape	control	4.890227456548018	1.0	low	4	minus	low_4	23
13	18	colour	illusion	6.536833843096247	1.0	low	4	2	low_4	23
14	32	shape	control	4.067794872542436	1.0	low	4	2	low_4	23
15	39	shape	control	3.9992146889599103	1.0	low	4	2	low_4	23
16	46	colour	control	4.674064312839619	1.0	low	4	minus	low_4	23
17	36	shape	control	7.707179882425407	1.0	low	4	2	low_4	23
18	10	shape	illusion	4.658656737221463	0.0	low	4	2	low_4	23
20	14	shape	illusion	9.50523459647593	1.0	low	4	2	low_4	23
21	2	shape	illusion	10.824296988586866	0.0	low	4	minus	low_4	23
22	13	shape	illusion	16.336008577636676	1.0	low	4	minus	low_4	23
23	33	shape	control	5.05499892212174	1.0	low	4	minus	low_4	23
24	45	colour	control	6.716625496595952	1.0	low	4	2	low_4	23
25	43	shape	control	4.246429225568136	1.0	low	4	minus	low_4	23
26	41	shape	control	2.8653507641611213	1.0	low	4	minus	low_4	23
27	22	colour	illusion	6.270727267714393	0.0	low	4	minus	low_4	23
28	1	shape	illusion	4.493450068319363	0.0	low	4	2	low_4	23
29	37	shape	control	4.826232306186284	1.0	low	4	minus	low_4	23
30	34	shape	control	4.798115496640094	1.0	low	4	2	low_4	23
31	7	shape	illusion	6.196633698189544	0.0	low	4	2	low_4	23
33	5	shape	illusion	4.2146443894453105	0.0	low	4	2	low_4	23
34	17	colour	illusion	4.84187126085817	0.0	low	4	2	low_4	23
35	3	shape	illusion	4.061747815474519	0.0	low	4	2	low_4	23
36	21	colour	illusion	8.305515979336633	0.0	low	4	2	low_4	23
38	12	shape	illusion	6.064048639036628	1.0	low	4	2	low_4	23
39	40	shape	control	7.857028006994369	1.0	low	4	2	low_4	23
41	42	shape	control	4.011005295378709	1.0	low	4	2	low_4	23
42	48	colour	control	4.482091828711418	1.0	low	4	minus	low_4	23
43	8	shape	illusion	6.982963451024261	0.0	low	4	minus	low_4	23
44	20	colour	illusion	3.5900149606204645	0.0	low	4	minus	low_4	23
45	44	colour	control	3.964390723442193	1.0	low	4	2	low_4	23
46	11	shape	illusion	6.248101557168411	0.0	low	4	minus	low_4	23
47	28	ambiguous	illusion	9.086700688709245	1.0	low	4	2	low_4	23
48	29	ambiguous	illusion	23.822065051957914	0.0	low	4	2	low_4	23
0	23	ambiguous	illusion	32.593021729193424	1.0	y	16	2	y_16	24
1	24	ambiguous	illusion	6.871115213677513	1.0	y	16	2	y_16	24
2	41	shape	control	5.816761027493158	1.0	y	16	minus	y_16	24
3	3	shape	illusion	7.497434185146631	0.0	y	16	2	y_16	24
4	47	colour	control	13.603270400902147	1.0	y	16	minus	y_16	24
5	44	colour	control	17.026517202143623	1.0	y	16	2	y_16	24
6	49	colour	control	7.020514362404356	1.0	y	16	minus	y_16	24
8	36	shape	control	7.0781495660967275	0.0	y	16	2	y_16	24
9	37	shape	control	5.216714103715276	1.0	y	16	minus	y_16	24
10	1	shape	illusion	5.350834659733664	0.0	y	16	2	y_16	24
11	39	shape	control	6.1244788948351925	1.0	y	16	2	y_16	24
12	22	colour	illusion	12.217414313454356	0.0	y	16	minus	y_16	24
13	32	shape	control	3.9343557422052986	1.0	y	16	2	y_16	24
14	2	shape	illusion	11.253872224689985	1.0	y	16	minus	y_16	24
15	31	shape	control	4.984604705668971	1.0	y	16	2	y_16	24
17	35	shape	control	11.702130858178863	1.0	y	16	minus	y_16	24
18	8	shape	illusion	5.7029789710159084	0.0	y	16	minus	y_16	24
20	20	colour	illusion	4.564629602014974	0.0	y	16	minus	y_16	24
21	7	shape	illusion	6.84448374119529	0.0	y	16	2	y_16	24
22	6	shape	illusion	6.759180932899652	0.0	y	16	minus	y_16	24
23	14	shape	illusion	8.03020100233698	0.0	y	16	2	y_16	24
24	48	colour	control	11.444272948887374	1.0	y	16	minus	y_16	24
25	46	colour	control	9.154151903370805	1.0	y	16	minus	y_16	24
26	12	shape	illusion	6.595903610943424	1.0	y	16	2	y_16	24
27	33	shape	control	6.084195763731259	0.0	y	16	minus	y_16	24
28	16	shape	illusion	4.450475559114238	0.0	y	16	minus	y_16	24
29	45	colour	control	7.364043419487642	0.0	y	16	2	y_16	24
30	18	colour	illusion	6.526464524327822	1.0	y	16	2	y_16	24
31	9	shape	illusion	18.94685213580124	0.0	y	16	minus	y_16	24
32	21	colour	illusion	10.375767475257817	0.0	y	16	2	y_16	24
33	11	shape	illusion	16.871924831188153	1.0	y	16	minus	y_16	24
34	13	shape	illusion	13.643051066685073	0.0	y	16	minus	y_16	24
35	4	shape	illusion	17.54803001176697	1.0	y	16	minus	y_16	24
36	10	shape	illusion	6.901416303864608	0.0	y	16	2	y_16	24
37	19	colour	illusion	6.238340778464591	0.0	y	16	minus	y_16	24
38	15	shape	illusion	4.708202179078398	0.0	y	16	2	y_16	24
39	42	shape	control	4.43728462877516	1.0	y	16	2	y_16	24
40	5	shape	illusion	3.5791399090376217	0.0	y	16	2	y_16	24
41	38	shape	control	39.706645752223274	0.0	y	16	minus	y_16	24
43	40	shape	control	5.748751940975126	1.0	y	16	2	y_16	24
44	43	shape	control	10.384346665413432	1.0	y	16	minus	y_16	24
45	34	shape	control	15.696897114552483	0.0	y	16	2	y_16	24
46	17	colour	illusion	7.115325516485427	0.0	y	16	2	y_16	24
47	28	ambiguous	illusion	19.896636805097838	0.0	y	16	2	y_16	24
48	29	ambiguous	illusion	30.876077463944053	1.0	y	16	2	y_16	24
0	23	ambiguous	illusion	9.897568797226997	1.0	low	5	2	low_5	25
1	24	ambiguous	illusion	5.152820775481813	1.0	low	5	2	low_5	25
2	1	shape	illusion	6.093308620684184	1.0	low	5	2	low_5	25
3	36	shape	control	5.10027586967044	1.0	low	5	2	low_5	25
4	12	shape	illusion	6.7649710353052805	1.0	low	5	2	low_5	25
5	33	shape	control	4.828181578001022	1.0	low	5	minus	low_5	25
6	45	colour	control	4.639349842291266	0.0	low	5	2	low_5	25
8	32	shape	control	5.582381215577698	0.0	low	5	2	low_5	25
9	39	shape	control	5.3948988423835535	0.0	low	5	2	low_5	25
10	41	shape	control	14.025668278878586	0.0	low	5	minus	low_5	25
11	11	shape	illusion	8.879245426755006	1.0	low	5	minus	low_5	25
12	3	shape	illusion	6.694480013225983	1.0	low	5	2	low_5	25
13	9	shape	illusion	8.60373761260962	0.0	low	5	minus	low_5	25
14	48	colour	control	8.141238544600128	1.0	low	5	minus	low_5	25
15	35	shape	control	11.320161177909538	1.0	low	5	minus	low_5	25
16	6	shape	illusion	6.944062237624166	1.0	low	5	minus	low_5	25
17	43	shape	control	5.794528557858938	1.0	low	5	minus	low_5	25
18	13	shape	illusion	8.375291348844257	0.0	low	5	minus	low_5	25
19	20	colour	illusion	12.35624507664943	0.0	low	5	minus	low_5	25
20	19	colour	illusion	7.393825025366822	0.0	low	5	minus	low_5	25
21	8	shape	illusion	6.9036291773500125	1.0	low	5	minus	low_5	25
22	47	colour	control	6.226877680490362	1.0	low	5	minus	low_5	25
23	5	shape	illusion	5.4072651622973344	0.0	low	5	2	low_5	25
25	49	colour	control	7.43678499995076	1.0	low	5	minus	low_5	25
26	31	shape	control	9.358451466712722	1.0	low	5	2	low_5	25
27	17	colour	illusion	5.463724840265058	0.0	low	5	2	low_5	25
28	22	colour	illusion	9.9655446561992	1.0	low	5	minus	low_5	25
30	16	shape	illusion	7.464065219999611	0.0	low	5	minus	low_5	25
31	46	colour	control	7.340311252954053	1.0	low	5	minus	low_5	25
32	21	colour	illusion	6.907352688514947	0.0	low	5	2	low_5	25
33	10	shape	illusion	8.173299884270817	1.0	low	5	2	low_5	25
34	44	colour	control	5.565027927346819	1.0	low	5	2	low_5	25
35	14	shape	illusion	8.806981188346981	0.0	low	5	2	low_5	25
36	2	shape	illusion	15.369642260899127	0.0	low	5	minus	low_5	25
37	40	shape	control	8.825824043127795	0.0	low	5	2	low_5	25
38	7	shape	illusion	5.9364320585827945	1.0	low	5	2	low_5	25
39	42	shape	control	6.489638678807751	1.0	low	5	2	low_5	25
40	34	shape	control	4.5978141948089615	1.0	low	5	2	low_5	25
41	15	shape	illusion	5.380809552676509	0.0	low	5	2	low_5	25
42	37	shape	control	5.693431724688708	0.0	low	5	minus	low_5	25
43	4	shape	illusion	8.129002298373962	1.0	low	5	minus	low_5	25
44	38	shape	control	9.367028225584363	0.0	low	5	minus	low_5	25
45	18	colour	illusion	7.090417419012737	1.0	low	5	2	low_5	25
47	28	ambiguous	illusion	11.38057858071443	1.0	low	5	2	low_5	25
48	29	ambiguous	illusion	14.855123444383937	1.0	low	5	2	low_5	25
0	23	ambiguous	illusion	6.74981380342615	1.0	y	17	2	y_17	27
1	24	ambiguous	illusion	3.9841001498498367	1.0	y	17	2	y_17	27
2	3	shape	illusion	5.680673079339613	0.0	y	17	2	y_17	27
3	35	shape	control	6.681083562752974	1.0	y	17	minus	y_17	27
4	36	shape	control	5.1847762926172445	1.0	y	17	2	y_17	27
5	17	colour	illusion	4.763975278605359	0.0	y	17	2	y_17	27
7	49	colour	control	10.756400177970137	1.0	y	17	minus	y_17	27
8	18	colour	illusion	6.405307595117848	1.0	y	17	2	y_17	27
9	2	shape	illusion	9.401171559375145	1.0	y	17	minus	y_17	27
10	5	shape	illusion	4.307219483414883	0.0	y	17	2	y_17	27
12	16	shape	illusion	4.44341204511511	1.0	y	17	minus	y_17	27
13	6	shape	illusion	5.9580573477342105	0.0	y	17	minus	y_17	27
14	47	colour	control	5.23653812957309	1.0	y	17	minus	y_17	27
16	45	colour	control	5.14971460664492	1.0	y	17	2	y_17	27
17	48	colour	control	5.2468792319705235	1.0	y	17	minus	y_17	27
18	1	shape	illusion	4.757576518890347	0.0	y	17	2	y_17	27
19	46	colour	control	5.751391713016346	1.0	y	17	minus	y_17	27
20	11	shape	illusion	6.016365442888856	0.0	y	17	minus	y_17	27
21	42	shape	control	4.674653601434329	1.0	y	17	2	y_17	27
22	13	shape	illusion	8.46642423967387	1.0	y	17	minus	y_17	27
23	21	colour	illusion	5.638879546419048	0.0	y	17	2	y_17	27
24	7	shape	illusion	5.878297543338704	0.0	y	17	2	y_17	27
26	22	colour	illusion	6.130957581219263	0.0	y	17	minus	y_17	27
27	37	shape	control	5.810523611507961	0.0	y	17	minus	y_17	27
28	10	shape	illusion	4.914455337540859	0.0	y	17	2	y_17	27
29	4	shape	illusion	5.173548578462942	0.0	y	17	minus	y_17	27
30	32	shape	control	4.071716679729434	0.0	y	17	2	y_17	27
31	44	colour	control	3.974070658256096	1.0	y	17	2	y_17	27
32	15	shape	illusion	3.476415640998312	0.0	y	17	2	y_17	27
33	12	shape	illusion	5.216534255710941	0.0	y	17	2	y_17	27
34	33	shape	control	5.699730369533428	0.0	y	17	minus	y_17	27
35	34	shape	control	4.725371197760978	0.0	y	17	2	y_17	27
36	20	colour	illusion	3.72636883859559	0.0	y	17	minus	y_17	27
37	43	shape	control	4.022090734259109	0.0	y	17	minus	y_17	27
38	41	shape	control	3.664530910251415	0.0	y	17	minus	y_17	27
39	31	shape	control	5.308555074068863	0.0	y	17	2	y_17	27
40	14	shape	illusion	8.735058687378114	0.0	y	17	2	y_17	27
41	19	colour	illusion	4.627880779082262	0.0	y	17	minus	y_17	27
42	39	shape	control	5.869335794881407	0.0	y	17	2	y_17	27
43	40	shape	control	5.619277646443153	0.0	y	17	2	y_17	27
44	8	shape	illusion	5.074130954340943	0.0	y	17	minus	y_17	27
45	9	shape	illusion	6.5641954727689145	0.0	y	17	minus	y_17	27
46	38	shape	control	6.275081833291552	0.0	y	17	minus	y_17	27
47	28	ambiguous	illusion	10.40485172755507	1.0	y	17	2	y_17	27
48	29	ambiguous	illusion	6.860969713376107	0.0	y	17	2	y_17	27
0	23	ambiguous	illusion	6.990957208420697	1.0	low	6	2	low_6	28
1	24	ambiguous	illusion	5.6932132868578265	1.0	low	6	2	low_6	28
2	47	colour	control	6.356737641531254	1.0	low	6	minus	low_6	28
3	1	shape	illusion	5.757871110638916	0.0	low	6	2	low_6	28
4	46	colour	control	4.600620709273244	1.0	low	6	minus	low_6	28
5	15	shape	illusion	3.9007120448723067	0.0	low	6	2	low_6	28
6	13	shape	illusion	7.105065114096759	0.0	low	6	minus	low_6	28
7	35	shape	control	14.233520083701476	0.0	low	6	minus	low_6	28
8	34	shape	control	4.808002359975943	1.0	low	6	2	low_6	28
9	17	colour	illusion	5.368721893231849	0.0	low	6	2	low_6	28
10	12	shape	illusion	8.730102900452039	0.0	low	6	2	low_6	28
11	16	shape	illusion	4.572404330619975	1.0	low	6	minus	low_6	28
12	2	shape	illusion	13.544189572829964	0.0	low	6	minus	low_6	28
13	39	shape	control	5.504747100884742	1.0	low	6	2	low_6	28
15	48	colour	control	5.3719648337682875	1.0	low	6	minus	low_6	28
16	3	shape	illusion	7.8884295544821725	0.0	low	6	2	low_6	28
17	4	shape	illusion	12.235700548905694	0.0	low	6	minus	low_6	28
18	5	shape	illusion	4.000468834461572	0.0	low	6	2	low_6	28
20	11	shape	illusion	12.541847831812445	1.0	low	6	minus	low_6	28
21	22	colour	illusion	8.287969310590597	0.0	low	6	minus	low_6	28
22	21	colour	illusion	7.650119011825153	1.0	low	6	2	low_6	28
23	14	shape	illusion	11.305179222812512	0.0	low	6	2	low_6	28
24	38	shape	control	11.612339949964735	0.0	low	6	minus	low_6	28
25	9	shape	illusion	7.756278208072218	1.0	low	6	minus	low_6	28
26	31	shape	control	5.138392072037277	1.0	low	6	2	low_6	28
27	41	shape	control	3.5548516059907342	0.0	low	6	minus	low_6	28
28	20	colour	illusion	14.070731195361983	0.0	low	6	minus	low_6	28
29	42	shape	control	5.915568464823991	1.0	low	6	2	low_6	28
30	19	colour	illusion	5.303801489734724	1.0	low	6	minus	low_6	28
31	44	colour	control	5.852130340033	0.0	low	6	2	low_6	28
32	49	colour	control	4.586468148837412	0.0	low	6	minus	low_6	28
33	37	shape	control	4.387165686990556	0.0	low	6	minus	low_6	28
34	18	colour	illusion	12.239213768253649	0.0	low	6	2	low_6	28
35	8	shape	illusion	8.382958333299941	1.0	low	6	minus	low_6	28
36	43	shape	control	7.937366228196878	0.0	low	6	minus	low_6	28
37	36	shape	control	8.864898683940739	1.0	low	6	2	low_6	28
38	33	shape	control	8.97465011658096	0.0	low	6	minus	low_6	28
39	45	colour	control	5.73587398118616	1.0	low	6	2	low_6	28
40	7	shape	illusion	11.395875796552902	0.0	low	6	2	low_6	28
41	10	shape	illusion	9.772107145491644	0.0	low	6	2	low_6	28
42	32	shape	control	4.758971271024166	1.0	low	6	2	low_6	28
44	40	shape	control	6.154305699519683	1.0	low	6	2	low_6	28
45	6	shape	illusion	7.661716687832267	0.0	low	6	minus	low_6	28
47	28	ambiguous	illusion	17.689924556957518	1.0	low	6	2	low_6	28
48	29	ambiguous	illusion	7.743879015584753	0.0	low	6	2	low_6	28
0	23	ambiguous	illusion	14.066454008652727	1.0	low	7	2	low_7	29
1	24	ambiguous	illusion	7.04725440997936	1.0	low	7	2	low_7	29
2	14	shape	illusion	17.179661578758896	0.0	low	7	2	low_7	29
3	36	shape	control	20.64493891755137	1.0	low	7	2	low_7	29
4	22	colour	illusion	14.737860906746393	0.0	low	7	minus	low_7	29
5	2	shape	illusion	14.564919450914203	1.0	low	7	minus	low_7	29
6	38	shape	control	20.933501822666585	0.0	low	7	minus	low_7	29
7	43	shape	control	10.885240853031066	1.0	low	7	minus	low_7	29
8	12	shape	illusion	17.001929644559823	1.0	low	7	2	low_7	29
9	1	shape	illusion	6.472610150206492	0.0	low	7	2	low_7	29
10	32	shape	control	6.21820624909833	1.0	low	7	2	low_7	29
11	18	colour	illusion	7.669073251932787	1.0	low	7	2	low_7	29
12	44	colour	control	4.557445623896456	1.0	low	7	2	low_7	29
13	40	shape	control	7.25877335874884	1.0	low	7	2	low_7	29
14	31	shape	control	5.240605848419364	1.0	low	7	2	low_7	29
15	42	shape	control	5.742394477374545	1.0	low	7	2	low_7	29
16	8	shape	illusion	6.7630281399069645	0.0	low	7	minus	low_7	29
17	7	shape	illusion	5.5970086051929675	1.0	low	7	2	low_7	29
21	3	shape	illusion	12.1157499031533	0.0	low	7	2	low_7	29
22	10	shape	illusion	7.3148991900516185	0.0	low	7	2	low_7	29
23	46	colour	control	7.89475130196297	1.0	low	7	minus	low_7	29
24	6	shape	illusion	18.833284707262465	0.0	low	7	minus	low_7	29
25	11	shape	illusion	11.22562456135256	0.0	low	7	minus	low_7	29
26	37	shape	control	7.564425896300236	1.0	low	7	minus	low_7	29
27	49	colour	control	7.055680902759378	1.0	low	7	minus	low_7	29
28	33	shape	control	7.896545198742388	1.0	low	7	minus	low_7	29
29	21	colour	illusion	7.682535379517502	1.0	low	7	2	low_7	29
30	4	shape	illusion	9.11940496277657	1.0	low	7	minus	low_7	29
31	15	shape	illusion	5.661304831972302	0.0	low	7	2	low_7	29
32	19	colour	illusion	6.726856827019218	0.0	low	7	minus	low_7	29
33	17	colour	illusion	6.349860929438363	0.0	low	7	2	low_7	29
34	47	colour	control	6.214520798180274	1.0	low	7	minus	low_7	29
35	45	colour	control	6.826699116464624	1.0	low	7	2	low_7	29
36	5	shape	illusion	4.7193436939287485	0.0	low	7	2	low_7	29
37	16	shape	illusion	6.404250810029224	1.0	low	7	minus	low_7	29
38	35	shape	control	6.906220165878949	0.0	low	7	minus	low_7	29
40	48	colour	control	8.389175107342451	1.0	low	7	minus	low_7	29
41	34	shape	control	6.194507118046204	0.0	low	7	2	low_7	29
42	13	shape	illusion	8.819719654495204	0.0	low	7	minus	low_7	29
43	20	colour	illusion	5.525094699271903	0.0	low	7	minus	low_7	29
44	9	shape	illusion	8.222360131160713	1.0	low	7	minus	low_7	29
45	39	shape	control	6.655448632229309	1.0	low	7	2	low_7	29
46	41	shape	control	4.8545278165438495	0.0	low	7	minus	low_7	29
47	28	ambiguous	illusion	37.32041581773682	0.0	low	7	2	low_7	29
48	29	ambiguous	illusion	12.675401934993715	1.0	low	7	2	low_7	29
0	23	ambiguous	illusion	18.52568266950584	1.0	n	6	2	n_6	30
1	24	ambiguous	illusion	5.0767392329726135	1.0	n	6	2	n_6	30
2	47	colour	control	6.094116164438673	1.0	n	6	minus	n_6	30
3	1	shape	illusion	6.908022977439033	0.0	n	6	2	n_6	30
4	46	colour	control	5.7251804432435165	1.0	n	6	minus	n_6	30
5	15	shape	illusion	4.36302967973279	0.0	n	6	2	n_6	30
6	13	shape	illusion	5.636247007470955	1.0	n	6	minus	n_6	30
7	35	shape	control	7.713929180990817	1.0	n	6	minus	n_6	30
8	34	shape	control	10.06874105483075	1.0	n	6	2	n_6	30
9	17	colour	illusion	11.024902221077356	0.0	n	6	2	n_6	30
10	12	shape	illusion	6.4445188693462105	0.0	n	6	2	n_6	30
11	16	shape	illusion	6.415487484458937	1.0	n	6	minus	n_6	30
12	2	shape	illusion	9.126632417704966	1.0	n	6	minus	n_6	30
13	39	shape	control	6.298694146880735	1.0	n	6	2	n_6	30
15	48	colour	control	9.699522086772047	1.0	n	6	minus	n_6	30
16	3	shape	illusion	6.1369200733279285	0.0	n	6	2	n_6	30
17	4	shape	illusion	12.77078886074014	1.0	n	6	minus	n_6	30
18	5	shape	illusion	4.046969542248918	0.0	n	6	2	n_6	30
20	11	shape	illusion	9.734723309555193	1.0	n	6	minus	n_6	30
21	22	colour	illusion	20.48787144239577	0.0	n	6	minus	n_6	30
22	21	colour	illusion	10.218102513481426	0.0	n	6	2	n_6	30
23	14	shape	illusion	10.942870040344133	0.0	n	6	2	n_6	30
24	38	shape	control	9.537544188940956	1.0	n	6	minus	n_6	30
25	9	shape	illusion	10.147221911554881	1.0	n	6	minus	n_6	30
26	31	shape	control	6.038653268564303	1.0	n	6	2	n_6	30
27	41	shape	control	7.25706374715628	1.0	n	6	minus	n_6	30
28	20	colour	illusion	9.251875345447845	1.0	n	6	minus	n_6	30
29	42	shape	control	5.570760657619758	1.0	n	6	2	n_6	30
30	19	colour	illusion	5.474436464364772	1.0	n	6	minus	n_6	30
31	44	colour	control	4.438712106108142	1.0	n	6	2	n_6	30
32	49	colour	control	4.588445959416276	0.0	n	6	minus	n_6	30
33	37	shape	control	6.080658899461922	1.0	n	6	minus	n_6	30
34	18	colour	illusion	12.122878079853766	1.0	n	6	2	n_6	30
35	8	shape	illusion	6.816854363298263	0.0	n	6	minus	n_6	30
36	43	shape	control	6.810350626385117	1.0	n	6	minus	n_6	30
37	36	shape	control	6.221559016652464	0.0	n	6	2	n_6	30
38	33	shape	control	6.9773179642543255	0.0	n	6	minus	n_6	30
39	45	colour	control	6.235572239700558	0.0	n	6	2	n_6	30
40	7	shape	illusion	7.159762169889292	1.0	n	6	2	n_6	30
41	10	shape	illusion	15.696102053156212	0.0	n	6	2	n_6	30
42	32	shape	control	4.132472408757167	1.0	n	6	2	n_6	30
44	40	shape	control	7.282419406341432	1.0	n	6	2	n_6	30
45	6	shape	illusion	7.118108267566639	1.0	n	6	minus	n_6	30
47	28	ambiguous	illusion	11.905072590619964	1.0	n	6	2	n_6	30
48	29	ambiguous	illusion	5.131223529182535	0.0	n	6	2	n_6	30
0	23	ambiguous	illusion	5.217233657856923	1.0	low	8	2	low_8	31
1	24	ambiguous	illusion	5.077251114546017	1.0	low	8	2	low_8	31
2	47	colour	control	5.489288530534395	1.0	low	8	minus	low_8	31
3	6	shape	illusion	10.53498874716297	0.0	low	8	minus	low_8	31
4	41	shape	control	10.37300178051737	1.0	low	8	minus	low_8	31
6	2	shape	illusion	13.400820642656072	0.0	low	8	minus	low_8	31
7	19	colour	illusion	5.818767317901803	0.0	low	8	minus	low_8	31
8	11	shape	illusion	6.645150663216555	0.0	low	8	minus	low_8	31
9	20	colour	illusion	4.0767328437787	0.0	low	8	minus	low_8	31
10	17	colour	illusion	5.261974729133726	0.0	low	8	2	low_8	31
12	22	colour	illusion	7.444714002874208	0.0	low	8	minus	low_8	31
13	35	shape	control	6.4309638215390805	1.0	low	8	minus	low_8	31
14	33	shape	control	7.9765858315558935	1.0	low	8	minus	low_8	31
16	3	shape	illusion	4.97797126372916	0.0	low	8	2	low_8	31
17	46	colour	control	10.84531501866786	0.0	low	8	minus	low_8	31
18	38	shape	control	17.847866256156518	1.0	low	8	minus	low_8	31
19	45	colour	control	9.9931854890674	0.0	low	8	2	low_8	31
20	13	shape	illusion	11.368266025669982	0.0	low	8	minus	low_8	31
21	9	shape	illusion	9.213118288110307	1.0	low	8	minus	low_8	31
22	32	shape	control	4.357552124910399	1.0	low	8	2	low_8	31
23	49	colour	control	3.82112648319071	1.0	low	8	minus	low_8	31
24	1	shape	illusion	4.84618055921419	0.0	low	8	2	low_8	31
25	37	shape	control	4.0590411301946006	1.0	low	8	minus	low_8	31
26	7	shape	illusion	15.67983266216106	0.0	low	8	2	low_8	31
27	36	shape	control	5.043460995161696	1.0	low	8	2	low_8	31
28	16	shape	illusion	4.521668094376763	0.0	low	8	minus	low_8	31
29	14	shape	illusion	6.53202378453534	0.0	low	8	2	low_8	31
30	42	shape	control	4.487338633012769	1.0	low	8	2	low_8	31
31	31	shape	control	4.711001036542257	1.0	low	8	2	low_8	31
32	21	colour	illusion	5.752655580507962	0.0	low	8	2	low_8	31
33	8	shape	illusion	4.748323015192909	0.0	low	8	minus	low_8	31
35	5	shape	illusion	4.075490047499443	0.0	low	8	2	low_8	31
36	39	shape	control	5.1860203045444	1.0	low	8	2	low_8	31
37	48	colour	control	5.3140777576336395	1.0	low	8	minus	low_8	31
38	44	colour	control	4.2955930370990245	1.0	low	8	2	low_8	31
39	10	shape	illusion	4.4875448877592135	0.0	low	8	2	low_8	31
40	12	shape	illusion	15.483494352509297	0.0	low	8	2	low_8	31
41	40	shape	control	6.452958519698767	1.0	low	8	2	low_8	31
42	4	shape	illusion	10.061186341640678	1.0	low	8	minus	low_8	31
43	18	colour	illusion	6.5216401344996475	1.0	low	8	2	low_8	31
44	34	shape	control	13.976734545684847	0.0	low	8	2	low_8	31
45	43	shape	control	15.101951437340176	1.0	low	8	minus	low_8	31
46	15	shape	illusion	4.382357803763625	0.0	low	8	2	low_8	31
47	28	ambiguous	illusion	13.283050803502192	1.0	low	8	2	low_8	31
48	29	ambiguous	illusion	4.306546825499936	0.0	low	8	2	low_8	31
0	23	ambiguous	illusion	6.602682446289692	1.0	n	7	2	n_7	32
1	24	ambiguous	illusion	4.833031312635285	1.0	n	7	2	n_7	32
2	14	shape	illusion	13.338225771556607	1.0	n	7	2	n_7	32
3	36	shape	control	12.365111827355573	0.0	n	7	2	n_7	32
4	22	colour	illusion	8.15822413447313	0.0	n	7	minus	n_7	32
5	2	shape	illusion	10.707019793160725	0.0	n	7	minus	n_7	32
6	38	shape	control	8.36616903488175	0.0	n	7	minus	n_7	32
7	43	shape	control	9.952804132553863	1.0	n	7	minus	n_7	32
8	12	shape	illusion	10.361375334206967	0.0	n	7	2	n_7	32
9	1	shape	illusion	6.386546922760317	0.0	n	7	2	n_7	32
10	32	shape	control	6.035535788236303	1.0	n	7	2	n_7	32
11	18	colour	illusion	6.941018436496961	1.0	n	7	2	n_7	32
12	44	colour	control	5.3309906468057315	1.0	n	7	2	n_7	32
13	40	shape	control	7.104934229457285	1.0	n	7	2	n_7	32
14	31	shape	control	6.565356010280083	1.0	n	7	2	n_7	32
15	42	shape	control	6.485141553959693	1.0	n	7	2	n_7	32
16	8	shape	illusion	6.100509274983778	0.0	n	7	minus	n_7	32
17	7	shape	illusion	6.154527757666074	0.0	n	7	2	n_7	32
21	3	shape	illusion	9.639940806097002	1.0	n	7	2	n_7	32
22	10	shape	illusion	5.978946617702603	0.0	n	7	2	n_7	32
23	46	colour	control	6.5987672530754935	1.0	n	7	minus	n_7	32
24	6	shape	illusion	6.279046868046862	0.0	n	7	minus	n_7	32
25	11	shape	illusion	9.63768456557591	0.0	n	7	minus	n_7	32
26	37	shape	control	7.9225726166623645	1.0	n	7	minus	n_7	32
27	49	colour	control	6.45786243902694	1.0	n	7	minus	n_7	32
28	33	shape	control	6.295419199595925	1.0	n	7	minus	n_7	32
29	21	colour	illusion	6.856700766904397	0.0	n	7	2	n_7	32
30	4	shape	illusion	9.643889227023463	0.0	n	7	minus	n_7	32
31	15	shape	illusion	4.417882245965302	0.0	n	7	2	n_7	32
32	19	colour	illusion	4.994628461863613	0.0	n	7	minus	n_7	32
33	17	colour	illusion	9.824340248203953	0.0	n	7	2	n_7	32
34	47	colour	control	6.644883626126102	1.0	n	7	minus	n_7	32
35	45	colour	control	5.600857760407962	0.0	n	7	2	n_7	32
36	5	shape	illusion	4.5027392575284475	0.0	n	7	2	n_7	32
37	16	shape	illusion	4.804598954055108	0.0	n	7	minus	n_7	32
38	35	shape	control	5.990456767147408	1.0	n	7	minus	n_7	32
40	48	colour	control	5.799151640589115	1.0	n	7	minus	n_7	32
41	34	shape	control	5.124700646963902	1.0	n	7	2	n_7	32
42	13	shape	illusion	5.941154994157841	0.0	n	7	minus	n_7	32
43	20	colour	illusion	5.043486928960192	0.0	n	7	minus	n_7	32
44	9	shape	illusion	7.137312172431848	1.0	n	7	minus	n_7	32
45	39	shape	control	4.970734923350391	1.0	n	7	2	n_7	32
46	41	shape	control	3.6895221778540868	1.0	n	7	minus	n_7	32
47	28	ambiguous	illusion	6.566390525724272	1.0	n	7	2	n_7	32
48	29	ambiguous	illusion	9.280279128724944	1.0	n	7	2	n_7	32
0	23	ambiguous	illusion	5.743769024795711	1.0	n	8	2	n_8	33
1	24	ambiguous	illusion	6.6367094680674645	1.0	n	8	2	n_8	33
2	47	colour	control	7.223618139322298	1.0	n	8	minus	n_8	33
3	6	shape	illusion	5.698794326355937	1.0	n	8	minus	n_8	33
4	41	shape	control	3.790123476800773	0.0	n	8	minus	n_8	33
6	2	shape	illusion	12.28670914389636	1.0	n	8	minus	n_8	33
7	19	colour	illusion	5.56102724982884	0.0	n	8	minus	n_8	33
8	11	shape	illusion	5.744252445060964	0.0	n	8	minus	n_8	33
9	20	colour	illusion	3.665082144975941	0.0	n	8	minus	n_8	33
10	17	colour	illusion	5.779400299534244	0.0	n	8	2	n_8	33
12	22	colour	illusion	8.110396898978706	0.0	n	8	minus	n_8	33
13	35	shape	control	5.525075856055082	0.0	n	8	minus	n_8	33
14	33	shape	control	5.585022400228354	0.0	n	8	minus	n_8	33
16	3	shape	illusion	14.976396286295085	0.0	n	8	2	n_8	33
17	46	colour	control	5.668164607639482	1.0	n	8	minus	n_8	33
18	38	shape	control	6.242905513827509	0.0	n	8	minus	n_8	33
19	45	colour	control	3.9920432185010672	1.0	n	8	2	n_8	33
20	13	shape	illusion	5.1551280638229855	0.0	n	8	minus	n_8	33
21	9	shape	illusion	6.196718009977985	1.0	n	8	minus	n_8	33
22	32	shape	control	4.062503849532732	1.0	n	8	2	n_8	33
23	49	colour	control	3.5684864285735785	1.0	n	8	minus	n_8	33
24	1	shape	illusion	5.139599859309783	0.0	n	8	2	n_8	33
25	37	shape	control	4.924212426129543	0.0	n	8	minus	n_8	33
26	7	shape	illusion	4.293316968091858	0.0	n	8	2	n_8	33
27	36	shape	control	4.001562910279063	1.0	n	8	2	n_8	33
28	16	shape	illusion	4.14490086845467	0.0	n	8	minus	n_8	33
29	14	shape	illusion	6.411022711432679	1.0	n	8	2	n_8	33
30	42	shape	control	3.9964053468793277	1.0	n	8	2	n_8	33
31	31	shape	control	4.480148972863617	0.0	n	8	2	n_8	33
32	21	colour	illusion	6.9617948061295465	1.0	n	8	2	n_8	33
33	8	shape	illusion	4.382008175596866	1.0	n	8	minus	n_8	33
35	5	shape	illusion	4.412413000560947	0.0	n	8	2	n_8	33
36	39	shape	control	5.572654864674861	1.0	n	8	2	n_8	33
37	48	colour	control	5.261809961131803	1.0	n	8	minus	n_8	33
38	44	colour	control	3.454031311693825	1.0	n	8	2	n_8	33
39	10	shape	illusion	3.7683671335812505	0.0	n	8	2	n_8	33
40	12	shape	illusion	6.7683371477473875	1.0	n	8	2	n_8	33
41	40	shape	control	7.776449531410434	0.0	n	8	2	n_8	33
42	4	shape	illusion	4.214883752216338	1.0	n	8	minus	n_8	33
43	18	colour	illusion	7.342052457379623	1.0	n	8	2	n_8	33
44	34	shape	control	4.672505259677337	0.0	n	8	2	n_8	33
45	43	shape	control	7.613641042015842	1.0	n	8	minus	n_8	33
46	15	shape	illusion	3.367715873689804	0.0	n	8	2	n_8	33
47	28	ambiguous	illusion	27.799723400944462	1.0	n	8	2	n_8	33
48	29	ambiguous	illusion	3.941295841856345	0.0	n	8	2	n_8	33
0	23	ambiguous	illusion	5.187924768985795	1.0	n	9	2	n_9	34
1	24	ambiguous	illusion	4.742436214752161	0.0	n	9	2	n_9	34
2	12	shape	illusion	4.777150771614288	0.0	n	9	2	n_9	34
3	46	colour	control	5.186115068732762	0.0	n	9	minus	n_9	34
4	14	shape	illusion	10.138015780780734	0.0	n	9	2	n_9	34
5	17	colour	illusion	6.337708058798852	0.0	n	9	2	n_9	34
6	3	shape	illusion	4.065189325605388	0.0	n	9	2	n_9	34
8	33	shape	control	6.146731193462074	0.0	n	9	minus	n_9	34
9	37	shape	control	4.476148912477584	0.0	n	9	minus	n_9	34
10	38	shape	control	6.7389971359243654	1.0	n	9	minus	n_9	34
11	42	shape	control	4.13792298602948	1.0	n	9	2	n_9	34
12	22	colour	illusion	6.581882655566916	0.0	n	9	minus	n_9	34
13	16	shape	illusion	5.099419242633303	0.0	n	9	minus	n_9	34
14	36	shape	control	4.527025964701352	1.0	n	9	2	n_9	34
15	44	colour	control	4.023398865067975	1.0	n	9	2	n_9	34
16	49	colour	control	3.6141266028371315	0.0	n	9	minus	n_9	34
17	40	shape	control	5.344934703291983	1.0	n	9	2	n_9	34
19	31	shape	control	4.512818642586353	1.0	n	9	2	n_9	34
20	32	shape	control	3.6196460670416855	1.0	n	9	2	n_9	34
21	9	shape	illusion	6.915769515668218	0.0	n	9	minus	n_9	34
22	10	shape	illusion	5.227770591925037	1.0	n	9	2	n_9	34
23	35	shape	control	6.3516576627398535	0.0	n	9	minus	n_9	34
24	47	colour	control	4.3603702388991215	0.0	n	9	minus	n_9	34
25	20	colour	illusion	3.430230503781786	1.0	n	9	minus	n_9	34
26	4	shape	illusion	5.7643608994521855	0.0	n	9	minus	n_9	34
27	19	colour	illusion	4.286700526620733	0.0	n	9	minus	n_9	34
28	1	shape	illusion	4.731546811507542	0.0	n	9	2	n_9	34
29	41	shape	control	3.0286233311126125	0.0	n	9	minus	n_9	34
30	34	shape	control	3.7687465657836574	1.0	n	9	2	n_9	34
33	39	shape	control	4.538181190463547	1.0	n	9	2	n_9	34
34	18	colour	illusion	6.511766698597968	1.0	n	9	2	n_9	34
35	7	shape	illusion	4.502967405945128	1.0	n	9	2	n_9	34
36	21	colour	illusion	8.645218922673848	0.0	n	9	2	n_9	34
37	8	shape	illusion	4.1023246503382325	0.0	n	9	minus	n_9	34
38	43	shape	control	4.379434089792993	0.0	n	9	minus	n_9	34
39	5	shape	illusion	3.3582225874579312	0.0	n	9	2	n_9	34
40	13	shape	illusion	5.185828580134512	0.0	n	9	minus	n_9	34
41	48	colour	control	5.3446392999148875	0.0	n	9	minus	n_9	34
42	45	colour	control	6.107267895609766	0.0	n	9	2	n_9	34
43	15	shape	illusion	4.11994147041969	0.0	n	9	2	n_9	34
44	2	shape	illusion	10.279161054407268	1.0	n	9	minus	n_9	34
45	6	shape	illusion	5.614178470645128	1.0	n	9	minus	n_9	34
46	11	shape	illusion	5.93871615828084	1.0	n	9	minus	n_9	34
47	28	ambiguous	illusion	7.332450364939178	1.0	n	9	2	n_9	34
48	29	ambiguous	illusion	4.400566574763617	1.0	n	9	2	n_9	34
0	23	ambiguous	illusion	8.005769483250331	1.0	n	10	2	n_10	35
1	24	ambiguous	illusion	4.812875129871827	1.0	n	10	2	n_10	35
2	40	shape	control	5.837503018869028	1.0	n	10	2	n_10	35
3	3	shape	illusion	6.131728024662152	0.0	n	10	2	n_10	35
4	14	shape	illusion	8.630119312167151	1.0	n	10	2	n_10	35
5	18	colour	illusion	7.223650748112051	1.0	n	10	2	n_10	35
7	32	shape	control	8.413036325295252	1.0	n	10	2	n_10	35
8	1	shape	illusion	5.0362041354856055	0.0	n	10	2	n_10	35
9	19	colour	illusion	10.972119026895596	0.0	n	10	minus	n_10	35
10	8	shape	illusion	6.752958896382553	0.0	n	10	minus	n_10	35
11	9	shape	illusion	6.589347973022085	0.0	n	10	minus	n_10	35
12	42	shape	control	5.551571189376774	1.0	n	10	2	n_10	35
13	41	shape	control	4.7529029764027655	0.0	n	10	minus	n_10	35
14	21	colour	illusion	5.991571886350357	0.0	n	10	2	n_10	35
15	49	colour	control	4.810265530761171	0.0	n	10	minus	n_10	35
16	43	shape	control	5.075547894248302	0.0	n	10	minus	n_10	35
17	36	shape	control	5.7739872405199995	0.0	n	10	2	n_10	35
18	47	colour	control	5.967947315273705	0.0	n	10	minus	n_10	35
19	35	shape	control	5.960090152735575	0.0	n	10	minus	n_10	35
20	46	colour	control	5.128291377139249	0.0	n	10	minus	n_10	35
21	13	shape	illusion	6.613629401268554	0.0	n	10	minus	n_10	35
22	16	shape	illusion	7.0783718532857165	0.0	n	10	minus	n_10	35
23	11	shape	illusion	6.2919428222248825	0.0	n	10	minus	n_10	35
24	34	shape	control	4.464607514672026	1.0	n	10	2	n_10	35
25	38	shape	control	8.072627493504115	0.0	n	10	minus	n_10	35
26	44	colour	control	4.3408112125234775	1.0	n	10	2	n_10	35
27	48	colour	control	4.6687640711697895	0.0	n	10	minus	n_10	35
28	12	shape	illusion	7.404689660315852	0.0	n	10	2	n_10	35
29	2	shape	illusion	10.8666819028349	0.0	n	10	minus	n_10	35
30	37	shape	control	4.904302677838132	0.0	n	10	minus	n_10	35
32	22	colour	illusion	8.762157328030298	0.0	n	10	minus	n_10	35
33	5	shape	illusion	5.374960086101055	0.0	n	10	2	n_10	35
35	17	colour	illusion	6.345274680566945	0.0	n	10	2	n_10	35
36	31	shape	control	5.074111804302447	1.0	n	10	2	n_10	35
37	33	shape	control	5.5197997254254005	0.0	n	10	minus	n_10	35
38	4	shape	illusion	5.71355921763825	0.0	n	10	minus	n_10	35
39	39	shape	control	4.7450304156063785	1.0	n	10	2	n_10	35
40	10	shape	illusion	6.716124648068218	0.0	n	10	2	n_10	35
42	6	shape	illusion	7.0780484899187295	0.0	n	10	minus	n_10	35
43	7	shape	illusion	4.97686776788396	0.0	n	10	2	n_10	35
44	15	shape	illusion	4.044955612502236	0.0	n	10	2	n_10	35
45	45	colour	control	7.20301708558145	1.0	n	10	2	n_10	35
46	20	colour	illusion	4.855800198718498	0.0	n	10	minus	n_10	35
47	28	ambiguous	illusion	7.882200102763817	0.0	n	10	2	n_10	35
48	29	ambiguous	illusion	5.084976084079244	0.0	n	10	2	n_10	35
0	23	ambiguous	illusion	4.577058138950632	1.0	n	11	2	n_11	36
1	24	ambiguous	illusion	6.6633795443085555	0.0	n	11	2	n_11	36
2	22	colour	illusion	7.089968360636702	0.0	n	11	minus	n_11	36
3	39	shape	control	5.055381447209584	0.0	n	11	2	n_11	36
4	32	shape	control	4.715812225565969	1.0	n	11	2	n_11	36
5	8	shape	illusion	4.267592507047084	1.0	n	11	minus	n_11	36
6	10	shape	illusion	6.218102918698605	0.0	n	11	2	n_11	36
7	3	shape	illusion	5.124590933182844	1.0	n	11	2	n_11	36
8	2	shape	illusion	9.600951774284114	1.0	n	11	minus	n_11	36
9	11	shape	illusion	7.775205323582668	1.0	n	11	minus	n_11	36
10	21	colour	illusion	7.170950623467434	0.0	n	11	2	n_11	36
11	14	shape	illusion	6.302055423994716	0.0	n	11	2	n_11	36
13	6	shape	illusion	9.764108449104242	0.0	n	11	minus	n_11	36
14	38	shape	control	8.453422302833133	0.0	n	11	minus	n_11	36
15	15	shape	illusion	4.26397877958243	0.0	n	11	2	n_11	36
16	33	shape	control	7.083548503695057	0.0	n	11	minus	n_11	36
17	20	colour	illusion	5.116554664617978	1.0	n	11	minus	n_11	36
18	45	colour	control	8.979929184232788	1.0	n	11	2	n_11	36
19	31	shape	control	5.6674669707417715	1.0	n	11	2	n_11	36
20	17	colour	illusion	8.026361813623225	0.0	n	11	2	n_11	36
21	7	shape	illusion	9.339402272134066	1.0	n	11	2	n_11	36
22	42	shape	control	5.627485400023033	1.0	n	11	2	n_11	36
23	44	colour	control	7.212322089364535	1.0	n	11	2	n_11	36
24	40	shape	control	11.28956014477626	1.0	n	11	2	n_11	36
25	12	shape	illusion	5.7449672017155535	0.0	n	11	2	n_11	36
26	19	colour	illusion	7.738377153526926	0.0	n	11	minus	n_11	36
27	47	colour	control	7.511212361395337	1.0	n	11	minus	n_11	36
28	16	shape	illusion	5.341158888926658	0.0	n	11	minus	n_11	36
29	46	colour	control	8.201742677319091	1.0	n	11	minus	n_11	36
31	5	shape	illusion	7.928843039907407	0.0	n	11	2	n_11	36
32	36	shape	control	5.6932817410724965	0.0	n	11	2	n_11	36
33	34	shape	control	4.46487333719142	1.0	n	11	2	n_11	36
34	49	colour	control	6.901317847550672	1.0	n	11	minus	n_11	36
35	35	shape	control	7.597197031216638	0.0	n	11	minus	n_11	36
36	43	shape	control	5.4209729104159114	0.0	n	11	minus	n_11	36
37	9	shape	illusion	7.20297048559587	0.0	n	11	minus	n_11	36
38	18	colour	illusion	8.00821213285326	1.0	n	11	2	n_11	36
39	48	colour	control	6.604970719001358	0.0	n	11	minus	n_11	36
40	13	shape	illusion	8.499162415937462	0.0	n	11	minus	n_11	36
41	4	shape	illusion	7.429860135212947	0.0	n	11	minus	n_11	36
43	1	shape	illusion	7.5324923454463715	0.0	n	11	2	n_11	36
44	41	shape	control	4.080343640439423	0.0	n	11	minus	n_11	36
45	37	shape	control	6.527698220123966	0.0	n	11	minus	n_11	36
47	28	ambiguous	illusion	8.630798456284538	1.0	n	11	2	n_11	36
48	29	ambiguous	illusion	6.253332911907818	0.0	n	11	2	n_11	36
0	23	ambiguous	illusion	11.785700045222256	1.0	n	12	2	n_12	37
1	24	ambiguous	illusion	4.25841474148001	1.0	n	12	2	n_12	37
2	43	shape	control	7.466730853080662	1.0	n	12	minus	n_12	37
3	38	shape	control	6.425735023574816	0.0	n	12	minus	n_12	37
4	21	colour	illusion	7.980612785739139	0.0	n	12	2	n_12	37
5	45	colour	control	5.987367757348692	0.0	n	12	2	n_12	37
6	39	shape	control	6.991633479372468	0.0	n	12	2	n_12	37
7	18	colour	illusion	7.3875862504919505	1.0	n	12	2	n_12	37
8	10	shape	illusion	4.285885634722945	0.0	n	12	2	n_12	37
9	34	shape	control	6.4313971242536345	0.0	n	12	2	n_12	37
10	47	colour	control	5.452330647553027	1.0	n	12	minus	n_12	37
11	12	shape	illusion	5.003911562143912	0.0	n	12	2	n_12	37
12	7	shape	illusion	6.602327486858486	0.0	n	12	2	n_12	37
13	36	shape	control	4.78678886398302	0.0	n	12	2	n_12	37
14	13	shape	illusion	8.086417847065604	0.0	n	12	minus	n_12	37
15	22	colour	illusion	8.383704269206646	1.0	n	12	minus	n_12	37
16	14	shape	illusion	7.626976852368897	0.0	n	12	2	n_12	37
18	6	shape	illusion	26.39097346151175	0.0	n	12	minus	n_12	37
19	16	shape	illusion	5.718968462750127	0.0	n	12	minus	n_12	37
20	32	shape	control	6.921470517203487	0.0	n	12	2	n_12	37
21	48	colour	control	4.731772922734309	1.0	n	12	minus	n_12	37
22	40	shape	control	8.901442654463606	1.0	n	12	2	n_12	37
23	41	shape	control	4.5585072931007735	0.0	n	12	minus	n_12	37
24	5	shape	illusion	4.130773332813988	0.0	n	12	2	n_12	37
25	3	shape	illusion	4.976929766124158	0.0	n	12	2	n_12	37
26	17	colour	illusion	10.885334458216677	1.0	n	12	2	n_12	37
27	1	shape	illusion	5.220102665844023	0.0	n	12	2	n_12	37
29	19	colour	illusion	5.999828187883395	1.0	n	12	minus	n_12	37
30	4	shape	illusion	6.749649487075657	1.0	n	12	minus	n_12	37
31	35	shape	control	5.246897656710644	0.0	n	12	minus	n_12	37
32	44	colour	control	3.9029922052395705	1.0	n	12	2	n_12	37
33	46	colour	control	5.468954280147956	0.0	n	12	minus	n_12	37
34	33	shape	control	5.084972031905637	0.0	n	12	minus	n_12	37
35	15	shape	illusion	4.150645186911788	0.0	n	12	2	n_12	37
38	37	shape	control	4.476751470534508	1.0	n	12	minus	n_12	37
39	8	shape	illusion	4.9656015125947315	1.0	n	12	minus	n_12	37
40	11	shape	illusion	6.332499396226923	1.0	n	12	minus	n_12	37
41	31	shape	control	4.2857827095431285	1.0	n	12	2	n_12	37
42	2	shape	illusion	12.509176955132716	1.0	n	12	minus	n_12	37
43	20	colour	illusion	3.822082881517417	1.0	n	12	minus	n_12	37
44	49	colour	control	4.732083319149751	0.0	n	12	minus	n_12	37
45	9	shape	illusion	7.422158170880722	1.0	n	12	minus	n_12	37
46	42	shape	control	6.543546672113735	1.0	n	12	2	n_12	37
47	28	ambiguous	illusion	6.752063771469692	0.0	n	12	2	n_12	37
48	29	ambiguous	illusion	3.9564743991850255	0.0	n	12	2	n_12	37
0	23	ambiguous	illusion	7.704697926746122	1.0	n	13	2	n_13	38
1	24	ambiguous	illusion	5.346821394822656	1.0	n	13	2	n_13	38
2	11	shape	illusion	7.295454840157618	1.0	n	13	minus	n_13	38
3	44	colour	control	4.651404158826153	1.0	n	13	2	n_13	38
4	15	shape	illusion	4.932110306619506	0.0	n	13	2	n_13	38
5	36	shape	control	4.644677957639941	1.0	n	13	2	n_13	38
6	47	colour	control	5.488534377821453	0.0	n	13	minus	n_13	38
7	14	shape	illusion	7.154568500355707	1.0	n	13	2	n_13	38
8	17	colour	illusion	5.860629983159015	1.0	n	13	2	n_13	38
9	7	shape	illusion	4.655577086098674	1.0	n	13	2	n_13	38
10	18	colour	illusion	6.667518433332589	0.0	n	13	2	n_13	38
11	22	colour	illusion	7.622888615502234	0.0	n	13	minus	n_13	38
12	20	colour	illusion	4.1319796645766464	0.0	n	13	minus	n_13	38
14	38	shape	control	9.178920841620313	0.0	n	13	minus	n_13	38
15	19	colour	illusion	4.7400365181783854	0.0	n	13	minus	n_13	38
16	10	shape	illusion	4.487006708776789	0.0	n	13	2	n_13	38
17	3	shape	illusion	3.7438560960072214	1.0	n	13	2	n_13	38
18	48	colour	control	4.436914967590383	0.0	n	13	minus	n_13	38
19	2	shape	illusion	9.213722520191366	1.0	n	13	minus	n_13	38
20	5	shape	illusion	3.9456469941787873	0.0	n	13	2	n_13	38
21	40	shape	control	5.240273570271711	1.0	n	13	2	n_13	38
22	41	shape	control	4.1532094016884	1.0	n	13	minus	n_13	38
23	39	shape	control	4.0802544926436894	1.0	n	13	2	n_13	38
24	31	shape	control	4.4480697881363085	1.0	n	13	2	n_13	38
25	33	shape	control	5.447591226559781	1.0	n	13	minus	n_13	38
26	35	shape	control	5.625727567578906	1.0	n	13	minus	n_13	38
27	46	colour	control	3.9307807888126254	0.0	n	13	minus	n_13	38
28	21	colour	illusion	9.522741197465619	1.0	n	13	2	n_13	38
29	9	shape	illusion	6.124462884531567	1.0	n	13	minus	n_13	38
31	6	shape	illusion	5.702471257939577	1.0	n	13	minus	n_13	38
32	32	shape	control	3.6132063544546327	1.0	n	13	2	n_13	38
34	34	shape	control	4.62104244569673	0.0	n	13	2	n_13	38
36	8	shape	illusion	4.671804011002678	0.0	n	13	minus	n_13	38
37	12	shape	illusion	6.322517274411439	0.0	n	13	2	n_13	38
38	45	colour	control	5.513197115501498	1.0	n	13	2	n_13	38
39	37	shape	control	4.33403598005043	0.0	n	13	minus	n_13	38
40	42	shape	control	4.345781607351455	1.0	n	13	2	n_13	38
41	16	shape	illusion	4.7617314446961245	1.0	n	13	minus	n_13	38
42	1	shape	illusion	4.6137647438290506	0.0	n	13	2	n_13	38
43	13	shape	illusion	4.761376069165634	1.0	n	13	minus	n_13	38
44	4	shape	illusion	6.257105079316716	0.0	n	13	minus	n_13	38
45	49	colour	control	4.2594999132834355	0.0	n	13	minus	n_13	38
46	43	shape	control	4.174178989323991	0.0	n	13	minus	n_13	38
47	28	ambiguous	illusion	5.779081631825648	1.0	n	13	2	n_13	38
48	29	ambiguous	illusion	4.8783229840846625	0.0	n	13	2	n_13	38
0	23	ambiguous	illusion	10.105408309803352	1.0	low	9	2	low_9	39
1	24	ambiguous	illusion	4.226417357421269	1.0	low	9	2	low_9	39
2	12	shape	illusion	7.753219830198759	0.0	low	9	2	low_9	39
3	46	colour	control	6.166493910444842	1.0	low	9	minus	low_9	39
4	14	shape	illusion	6.5429701049333735	0.0	low	9	2	low_9	39
5	17	colour	illusion	5.313844702556708	0.0	low	9	2	low_9	39
6	3	shape	illusion	6.612782798828447	1.0	low	9	2	low_9	39
8	33	shape	control	6.125527183373379	1.0	low	9	minus	low_9	39
9	37	shape	control	4.533333711532578	1.0	low	9	minus	low_9	39
10	38	shape	control	6.675796407535017	1.0	low	9	minus	low_9	39
11	42	shape	control	4.883917949034185	1.0	low	9	2	low_9	39
12	22	colour	illusion	6.783121379412477	1.0	low	9	minus	low_9	39
13	16	shape	illusion	4.811956810674018	1.0	low	9	minus	low_9	39
14	36	shape	control	5.385479643670807	0.0	low	9	2	low_9	39
15	44	colour	control	4.25215857481453	1.0	low	9	2	low_9	39
16	49	colour	control	3.8426051692331376	1.0	low	9	minus	low_9	39
17	40	shape	control	5.605485300457985	1.0	low	9	2	low_9	39
19	31	shape	control	5.196103705600763	1.0	low	9	2	low_9	39
20	32	shape	control	4.06479330845832	1.0	low	9	2	low_9	39
21	9	shape	illusion	5.783911141439602	1.0	low	9	minus	low_9	39
22	10	shape	illusion	6.495783343436416	1.0	low	9	2	low_9	39
