	Trialnumber	IllusionType	Condition	RT	ACC	literate	number	key	pp	subject
0	23	ambiguous	illusion	4.038252758910858	1.0	y	1	2	y_1	01
1	24	ambiguous	illusion	4.590414138458981	1.0	y	1	2	y_1	01
3	21	colour	illusion	6.762896999864098	0.0	y	1	2	y_1	01
4	7	shape	illusion	8.625223780320994	0.0	y	1	2	y_1	01
5	11	shape	illusion	18.897909978921234	1.0	y	1	minus	y_1	01
6	9	shape	illusion	6.899562448183133	0.0	y	1	minus	y_1	01
7	45	colour	control	4.9048310615598885	1.0	y	1	2	y_1	01
8	48	colour	control	4.796866629764736	1.0	y	1	minus	y_1	01
9	44	colour	control	5.625512293836437	1.0	y	1	2	y_1	01
10	46	colour	control	6.08305461252894	1.0	y	1	minus	y_1	01
11	20	colour	illusion	3.76646370767412	0.0	y	1	minus	y_1	01
12	18	colour	illusion	6.547332830325104	1.0	y	1	2	y_1	01
13	40	shape	control	6.2830139288807905	1.0	y	1	2	y_1	01
14	2	shape	illusion	9.118858653500864	1.0	y	1	minus	y_1	01
15	12	shape	illusion	6.72053778595091	0.0	y	1	2	y_1	01
17	34	shape	control	4.143533852928158	0.0	y	1	2	y_1	01
18	14	shape	illusion	7.690773078446909	1.0	y	1	2	y_1	01
19	13	shape	illusion	7.87296490589688	0.0	y	1	minus	y_1	01
20	33	shape	control	5.329242141450777	1.0	y	1	minus	y_1	01
21	36	shape	control	7.229643791164563	0.0	y	1	2	y_1	01
22	4	shape	illusion	5.313777492866393	0.0	y	1	minus	y_1	01
23	10	shape	illusion	6.002250567503777	0.0	y	1	2	y_1	01
24	16	shape	illusion	5.1787357435023305	1.0	y	1	minus	y_1	01
25	6	shape	illusion	11.529809686435328	1.0	y	1	minus	y_1	01
26	43	shape	control	4.532767760398201	0.0	y	1	minus	y_1	01
27	31	shape	control	5.306670416261113	1.0	y	1	2	y_1	01
28	41	shape	control	3.2391606850087555	1.0	y	1	minus	y_1	01
29	5	shape	illusion	5.196903990645296	0.0	y	1	2	y_1	01
31	17	colour	illusion	5.39389307656711	0.0	y	1	2	y_1	01
32	22	colour	illusion	7.546734326868317	0.0	y	1	minus	y_1	01
33	39	shape	control	5.016972050658295	1.0	y	1	2	y_1	01
34	37	shape	control	4.148805302813344	1.0	y	1	minus	y_1	01
35	15	shape	illusion	4.2427646726537205	0.0	y	1	2	y_1	01
36	38	shape	control	8.677433785742322	0.0	y	1	minus	y_1	01
37	42	shape	control	4.596343658497061	1.0	y	1	2	y_1	01
38	47	colour	control	8.208160475107434	0.0	y	1	minus	y_1	01
39	1	shape	illusion	9.922066097149582	0.0	y	1	2	y_1	01
40	19	colour	illusion	8.567160030181185	1.0	y	1	minus	y_1	01
42	32	shape	control	4.509447196758629	1.0	y	1	2	y_1	01
43	8	shape	illusion	5.246221567032991	0.0	y	1	minus	y_1	01
44	3	shape	illusion	5.396109200744832	1.0	y	1	2	y_1	01
45	49	colour	control	4.0344781754920405	1.0	y	1	minus	y_1	01
46	35	shape	control	5.824221925244273	1.0	y	1	minus	y_1	01
47	28	ambiguous	illusion	12.108392339479904	1.0	y	1	2	y_1	01
48	29	ambiguous	illusion	10.626718215495202	0.0	y	1	2	y_1	01
0	23	ambiguous	illusion	5.620179332947373	1.0	n	1	2	n_1	02
1	24	ambiguous	illusion	4.9075553567290635	1.0	n	1	2	n_1	02
3	21	colour	illusion	6.6406460459711525	1.0	n	1	2	n_1	02
4	7	shape	illusion	6.5962974489139015	1.0	n	1	2	n_1	02
5	11	shape	illusion	8.35201384870561	0.0	n	1	minus	n_1	02
6	9	shape	illusion	7.051976001414005	0.0	n	1	minus	n_1	02
7	45	colour	control	6.004656351457014	1.0	n	1	2	n_1	02
8	48	colour	control	8.459177198263205	0.0	n	1	minus	n_1	02
9	44	colour	control	4.773706424963166	1.0	n	1	2	n_1	02
10	46	colour	control	7.050338923711023	0.0	n	1	minus	n_1	02
11	20	colour	illusion	4.701273030523224	0.0	n	1	minus	n_1	02
12	18	colour	illusion	6.963091191710192	1.0	n	1	2	n_1	02
13	40	shape	control	5.3333073994290325	1.0	n	1	2	n_1	02
14	2	shape	illusion	9.068266140207923	0.0	n	1	minus	n_1	02
15	12	shape	illusion	5.740460375425755	1.0	n	1	2	n_1	02
17	34	shape	control	5.93288386635686	1.0	n	1	2	n_1	02
18	14	shape	illusion	6.5549081534591105	1.0	n	1	2	n_1	02
19	13	shape	illusion	6.232394931217642	0.0	n	1	minus	n_1	02
20	33	shape	control	5.896961356862447	0.0	n	1	minus	n_1	02
21	36	shape	control	5.442036103235296	1.0	n	1	2	n_1	02
22	4	shape	illusion	7.6571991707623965	0.0	n	1	minus	n_1	02
23	10	shape	illusion	7.812191933582652	1.0	n	1	2	n_1	02
24	16	shape	illusion	6.061788742417775	0.0	n	1	minus	n_1	02
25	6	shape	illusion	7.0817225947521365	1.0	n	1	minus	n_1	02
26	43	shape	control	5.1012848628670335	1.0	n	1	minus	n_1	02
27	31	shape	control	5.138579843198387	1.0	n	1	2	n_1	02
28	41	shape	control	3.1975028891993134	0.0	n	1	minus	n_1	02
29	5	shape	illusion	4.8380123769566135	1.0	n	1	2	n_1	02
31	17	colour	illusion	9.840437196999119	0.0	n	1	2	n_1	02
32	22	colour	illusion	8.186474496436857	1.0	n	1	minus	n_1	02
33	39	shape	control	6.142298116712482	1.0	n	1	2	n_1	02
34	37	shape	control	5.3932633442091165	1.0	n	1	minus	n_1	02
35	15	shape	illusion	5.529136336153897	0.0	n	1	2	n_1	02
36	38	shape	control	6.435645016717899	0.0	n	1	minus	n_1	02
37	42	shape	control	4.407136767307748	1.0	n	1	2	n_1	02
38	47	colour	control	6.6802491437756535	1.0	n	1	minus	n_1	02
39	1	shape	illusion	7.374534202766881	0.0	n	1	2	n_1	02
40	19	colour	illusion	6.1347699905818445	1.0	n	1	minus	n_1	02
42	32	shape	control	5.2538070160935595	1.0	n	1	2	n_1	02
43	8	shape	illusion	4.700140853517952	0.0	n	1	minus	n_1	02
44	3	shape	illusion	4.847650064104529	1.0	n	1	2	n_1	02
45	49	colour	control	6.321671991221592	1.0	n	1	minus	n_1	02
46	35	shape	control	5.832693495291097	1.0	n	1	minus	n_1	02
47	28	ambiguous	illusion	7.0880747804112625	1.0	n	1	2	n_1	02
48	29	ambiguous	illusion	5.450046437896162	0.0	n	1	2	n_1	02
0	23	ambiguous	illusion	6.229578671309356	1.0	n	2	2	n_2	03
1	24	ambiguous	illusion	7.5817513651782065	1.0	n	2	2	n_2	03
2	20	colour	illusion	5.8314750070112495	0.0	n	2	minus	n_2	03
3	11	shape	illusion	11.23359396907108	0.0	n	2	minus	n_2	03
5	3	shape	illusion	10.9603231526562	0.0	n	2	2	n_2	03
6	43	shape	control	8.853015950971894	0.0	n	2	minus	n_2	03
7	37	shape	control	5.367977382393292	1.0	n	2	minus	n_2	03
8	49	colour	control	9.155097308872428	1.0	n	2	minus	n_2	03
9	31	shape	control	10.845051000642343	1.0	n	2	2	n_2	03
11	48	colour	control	10.342637931900754	1.0	n	2	minus	n_2	03
12	17	colour	illusion	11.808218373198542	0.0	n	2	2	n_2	03
13	8	shape	illusion	4.484840417340821	0.0	n	2	minus	n_2	03
14	6	shape	illusion	7.8580544222986655	0.0	n	2	minus	n_2	03
15	39	shape	control	11.29279499410768	1.0	n	2	2	n_2	03
16	19	colour	illusion	11.732439099898329	1.0	n	2	minus	n_2	03
17	5	shape	illusion	5.380694315450455	0.0	n	2	2	n_2	03
18	34	shape	control	12.435689185400404	1.0	n	2	2	n_2	03
19	14	shape	illusion	15.620396529395292	0.0	n	2	2	n_2	03
20	22	colour	illusion	7.681973343187566	1.0	n	2	minus	n_2	03
21	38	shape	control	16.92813147840934	0.0	n	2	minus	n_2	03
22	16	shape	illusion	6.590957901169531	1.0	n	2	minus	n_2	03
23	36	shape	control	14.40211936727792	1.0	n	2	2	n_2	03
24	42	shape	control	5.236511533294107	1.0	n	2	2	n_2	03
25	46	colour	control	5.637106878481062	1.0	n	2	minus	n_2	03
26	33	shape	control	8.84441440433875	1.0	n	2	minus	n_2	03
28	10	shape	illusion	8.837798017028035	0.0	n	2	2	n_2	03
29	2	shape	illusion	15.922402111667907	1.0	n	2	minus	n_2	03
30	41	shape	control	4.28791253142299	1.0	n	2	minus	n_2	03
31	18	colour	illusion	6.57080766281979	1.0	n	2	2	n_2	03
32	32	shape	control	5.173112052294528	1.0	n	2	2	n_2	03
33	12	shape	illusion	23.58109410279212	0.0	n	2	2	n_2	03
34	1	shape	illusion	5.391483224815601	0.0	n	2	2	n_2	03
35	35	shape	control	6.578509221933928	0.0	n	2	minus	n_2	03
36	7	shape	illusion	16.877825377297995	0.0	n	2	2	n_2	03
37	9	shape	illusion	13.278875781461466	0.0	n	2	minus	n_2	03
38	44	colour	control	5.735777684847562	0.0	n	2	2	n_2	03
39	13	shape	illusion	11.255980196221573	1.0	n	2	minus	n_2	03
41	47	colour	control	7.400408134815733	1.0	n	2	minus	n_2	03
42	4	shape	illusion	11.811148904373114	1.0	n	2	minus	n_2	03
43	15	shape	illusion	6.038718103323845	0.0	n	2	2	n_2	03
44	21	colour	illusion	6.143144210336686	0.0	n	2	2	n_2	03
45	45	colour	control	5.5747042319271705	0.0	n	2	2	n_2	03
46	40	shape	control	6.0740230617248026	1.0	n	2	2	n_2	03
47	28	ambiguous	illusion	7.676842482329447	1.0	n	2	2	n_2	03
48	29	ambiguous	illusion	19.118878180346652	0.0	n	2	2	n_2	03
0	23	ambiguous	illusion	4.979158629922495	1.0	n	3	2	n_3	04
1	24	ambiguous	illusion	5.019661792212901	1.0	n	3	2	n_3	04
2	31	shape	control	5.756824208455327	1.0	n	3	2	n_3	04
3	8	shape	illusion	5.281583997614688	0.0	n	3	minus	n_3	04
4	17	colour	illusion	6.3592963378378045	0.0	n	3	2	n_3	04
5	33	shape	control	7.621605117366017	1.0	n	3	minus	n_3	04
6	7	shape	illusion	4.843599969527531	1.0	n	3	2	n_3	04
7	39	shape	control	5.777612900715213	1.0	n	3	2	n_3	04
9	15	shape	illusion	6.196576590303266	0.0	n	3	2	n_3	04
10	46	colour	control	5.580156590885964	1.0	n	3	minus	n_3	04
11	48	colour	control	5.563776221395528	1.0	n	3	minus	n_3	04
12	32	shape	control	5.715901649707121	0.0	n	3	2	n_3	04
13	10	shape	illusion	5.512258938209016	1.0	n	3	2	n_3	04
14	13	shape	illusion	7.095355356443179	0.0	n	3	minus	n_3	04
15	14	shape	illusion	11.312505875602255	0.0	n	3	2	n_3	04
17	41	shape	control	4.062854359615812	1.0	n	3	minus	n_3	04
18	22	colour	illusion	9.311237555878506	1.0	n	3	minus	n_3	04
19	6	shape	illusion	4.8640973129449785	0.0	n	3	minus	n_3	04
21	11	shape	illusion	9.348643262588665	1.0	n	3	minus	n_3	04
22	20	colour	illusion	4.761134064230647	0.0	n	3	minus	n_3	04
23	21	colour	illusion	5.644893169389434	0.0	n	3	2	n_3	04
24	5	shape	illusion	4.6043239572218235	0.0	n	3	2	n_3	04
25	35	shape	control	6.613527987317866	0.0	n	3	minus	n_3	04
26	36	shape	control	12.042359852696789	0.0	n	3	2	n_3	04
27	1	shape	illusion	8.408326417681565	0.0	n	3	2	n_3	04
28	9	shape	illusion	10.769763500918998	0.0	n	3	minus	n_3	04
29	2	shape	illusion	11.212627115622126	1.0	n	3	minus	n_3	04
30	43	shape	control	6.141108470917062	0.0	n	3	minus	n_3	04
31	45	colour	control	5.185432800935813	0.0	n	3	2	n_3	04
32	19	colour	illusion	6.517452160439461	0.0	n	3	minus	n_3	04
34	38	shape	control	12.183312721449509	1.0	n	3	minus	n_3	04
35	44	colour	control	4.489233059624894	1.0	n	3	2	n_3	04
36	40	shape	control	7.24841561338053	1.0	n	3	2	n_3	04
37	4	shape	illusion	6.424738799075385	1.0	n	3	minus	n_3	04
38	37	shape	control	4.5206014834075186	1.0	n	3	minus	n_3	04
39	49	colour	control	5.18134905455463	1.0	n	3	minus	n_3	04
40	12	shape	illusion	12.01711826412884	1.0	n	3	2	n_3	04
41	47	colour	control	4.332559104509528	1.0	n	3	minus	n_3	04
42	3	shape	illusion	7.1338308280301135	1.0	n	3	2	n_3	04
43	16	shape	illusion	5.3471541012513635	1.0	n	3	minus	n_3	04
44	18	colour	illusion	7.52052813967839	0.0	n	3	2	n_3	04
45	42	shape	control	4.876620855876354	0.0	n	3	2	n_3	04
46	34	shape	control	7.326974850800071	0.0	n	3	2	n_3	04
47	28	ambiguous	illusion	20.172860632327684	1.0	n	3	2	n_3	04
48	29	ambiguous	illusion	7.486737752003138	0.0	n	3	2	n_3	04
0	23	ambiguous	illusion	8.337946829444263	1.0	n	4	2	n_4	05
1	24	ambiguous	illusion	6.304691324206942	1.0	n	4	2	n_4	05
2	49	colour	control	4.925027311421218	1.0	n	4	minus	n_4	05
3	19	colour	illusion	5.024381319311941	0.0	n	4	minus	n_4	05
4	31	shape	control	5.302119431144092	1.0	n	4	2	n_4	05
5	4	shape	illusion	7.326454556065072	0.0	n	4	minus	n_4	05
6	47	colour	control	5.49446072504179	1.0	n	4	minus	n_4	05
7	6	shape	illusion	6.256782876629586	0.0	n	4	minus	n_4	05
8	9	shape	illusion	24.31654302237803	0.0	n	4	minus	n_4	05
9	15	shape	illusion	4.7403931872195235	0.0	n	4	2	n_4	05
10	16	shape	illusion	5.543408951662059	1.0	n	4	minus	n_4	05
11	38	shape	control	6.8247121359963785	1.0	n	4	minus	n_4	05
12	35	shape	control	6.246497330450437	1.0	n	4	minus	n_4	05
13	18	colour	illusion	7.240914292384333	1.0	n	4	2	n_4	05
14	32	shape	control	5.1666612638127845	1.0	n	4	2	n_4	05
15	39	shape	control	5.011937603532715	1.0	n	4	2	n_4	05
16	46	colour	control	5.363105349149919	1.0	n	4	minus	n_4	05
17	36	shape	control	7.0656438525802505	1.0	n	4	2	n_4	05
18	10	shape	illusion	5.160464326583679	0.0	n	4	2	n_4	05
20	14	shape	illusion	20.87990227859882	0.0	n	4	2	n_4	05
21	2	shape	illusion	11.004110085288632	0.0	n	4	minus	n_4	05
22	13	shape	illusion	6.249301005902453	1.0	n	4	minus	n_4	05
23	33	shape	control	6.331734899295043	1.0	n	4	minus	n_4	05
24	45	colour	control	5.9608263447426	1.0	n	4	2	n_4	05
25	43	shape	control	7.553588331782521	1.0	n	4	minus	n_4	05
26	41	shape	control	4.462603207997745	1.0	n	4	minus	n_4	05
27	22	colour	illusion	7.112740656575625	1.0	n	4	minus	n_4	05
28	1	shape	illusion	6.002659824493094	0.0	n	4	2	n_4	05
29	37	shape	control	4.733638675566908	1.0	n	4	minus	n_4	05
30	34	shape	control	7.8743751600595715	1.0	n	4	2	n_4	05
31	7	shape	illusion	8.2922447719302	1.0	n	4	2	n_4	05
33	5	shape	illusion	5.005219966351433	0.0	n	4	2	n_4	05
34	17	colour	illusion	9.575811481496203	0.0	n	4	2	n_4	05
35	3	shape	illusion	5.908477157277957	0.0	n	4	2	n_4	05
36	21	colour	illusion	6.747189841124055	0.0	n	4	2	n_4	05
38	12	shape	illusion	10.234589712752497	1.0	n	4	2	n_4	05
39	40	shape	control	5.411674295493867	1.0	n	4	2	n_4	05
41	42	shape	control	5.580340558028184	0.0	n	4	2	n_4	05
42	48	colour	control	5.849473951224353	1.0	n	4	minus	n_4	05
43	8	shape	illusion	8.170137189241357	0.0	n	4	minus	n_4	05
44	20	colour	illusion	5.8627066186036245	0.0	n	4	minus	n_4	05
45	44	colour	control	5.2958767047348365	1.0	n	4	2	n_4	05
46	11	shape	illusion	9.060404435958842	0.0	n	4	minus	n_4	05
47	28	ambiguous	illusion	19.741810220468324	1.0	n	4	2	n_4	05
48	29	ambiguous	illusion	5.057507156077918	0.0	n	4	2	n_4	05
0	23	ambiguous	illusion	35.48678637767807	1.0	n	5	2	n_5	06
1	24	ambiguous	illusion	4.6206196369930685	1.0	n	5	2	n_5	06
2	1	shape	illusion	5.231075291998423	0.0	n	5	2	n_5	06
3	36	shape	control	5.351517040056934	1.0	n	5	2	n_5	06
4	12	shape	illusion	6.823914269691159	0.0	n	5	2	n_5	06
5	33	shape	control	8.04223950414962	1.0	n	5	minus	n_5	06
6	45	colour	control	5.797907231935824	0.0	n	5	2	n_5	06
8	32	shape	control	6.228108315313874	1.0	n	5	2	n_5	06
9	39	shape	control	4.75537881022683	1.0	n	5	2	n_5	06
10	41	shape	control	3.7547551859279333	1.0	n	5	minus	n_5	06
11	11	shape	illusion	9.316225739839863	1.0	n	5	minus	n_5	06
12	3	shape	illusion	5.366714995187066	1.0	n	5	2	n_5	06
13	9	shape	illusion	14.321525128128993	0.0	n	5	minus	n_5	06
14	48	colour	control	9.591975871942848	0.0	n	5	minus	n_5	06
15	35	shape	control	7.831145312971785	0.0	n	5	minus	n_5	06
16	6	shape	illusion	6.437233977030702	0.0	n	5	minus	n_5	06
17	43	shape	control	4.776001364760305	0.0	n	5	minus	n_5	06
18	13	shape	illusion	6.792372414329293	0.0	n	5	minus	n_5	06
19	20	colour	illusion	4.585789875487535	0.0	n	5	minus	n_5	06
20	19	colour	illusion	13.980971152006534	0.0	n	5	minus	n_5	06
21	8	shape	illusion	6.547504854464933	0.0	n	5	minus	n_5	06
22	47	colour	control	6.769372469436347	0.0	n	5	minus	n_5	06
23	5	shape	illusion	4.890825226353627	0.0	n	5	2	n_5	06
25	49	colour	control	8.475136476063199	1.0	n	5	minus	n_5	06
26	31	shape	control	5.1870070572040285	1.0	n	5	2	n_5	06
27	17	colour	illusion	5.4479364883845856	0.0	n	5	2	n_5	06
28	22	colour	illusion	6.816697814116196	0.0	n	5	minus	n_5	06
30	16	shape	illusion	5.821316848148854	0.0	n	5	minus	n_5	06
31	46	colour	control	5.076219126749493	1.0	n	5	minus	n_5	06
32	21	colour	illusion	6.009116503879341	1.0	n	5	2	n_5	06
33	10	shape	illusion	6.072000038901024	0.0	n	5	2	n_5	06
34	44	colour	control	4.930126929222752	0.0	n	5	2	n_5	06
35	14	shape	illusion	8.141007977854315	0.0	n	5	2	n_5	06
36	2	shape	illusion	10.51575107219469	0.0	n	5	minus	n_5	06
37	40	shape	control	6.128849127493595	1.0	n	5	2	n_5	06
38	7	shape	illusion	5.704419101461098	1.0	n	5	2	n_5	06
39	42	shape	control	4.649041344790022	1.0	n	5	2	n_5	06
40	34	shape	control	5.770351061175461	0.0	n	5	2	n_5	06
41	15	shape	illusion	4.04132696229135	0.0	n	5	2	n_5	06
42	37	shape	control	5.0048962003893385	1.0	n	5	minus	n_5	06
43	4	shape	illusion	7.131405217209249	1.0	n	5	minus	n_5	06
44	38	shape	control	7.971724979659483	1.0	n	5	minus	n_5	06
45	18	colour	illusion	7.002146013182937	1.0	n	5	2	n_5	06
47	28	ambiguous	illusion	7.106993912064353	1.0	n	5	2	n_5	06
48	29	ambiguous	illusion	5.067066964038531	0.0	n	5	2	n_5	06
0	23	ambiguous	illusion	7.318727989363651	1.0	n	6	2	n_6	07
1	24	ambiguous	illusion	6.5272369654285285	1.0	n	6	2	n_6	07
2	47	colour	control	7.988991187033207	1.0	n	6	minus	n_6	07
3	1	shape	illusion	5.615957024783712	0.0	n	6	2	n_6	07
4	46	colour	control	5.4301099625135985	1.0	n	6	minus	n_6	07
5	15	shape	illusion	5.196365568122019	0.0	n	6	2	n_6	07
6	13	shape	illusion	7.890360035350567	1.0	n	6	minus	n_6	07
7	35	shape	control	6.918596457389867	0.0	n	6	minus	n_6	07
8	34	shape	control	7.58200670140468	1.0	n	6	2	n_6	07
9	17	colour	illusion	6.170892695274232	0.0	n	6	2	n_6	07
10	12	shape	illusion	10.269050558767956	0.0	n	6	2	n_6	07
11	16	shape	illusion	5.708757573927868	1.0	n	6	minus	n_6	07
12	2	shape	illusion	25.325914027686853	1.0	n	6	minus	n_6	07
13	39	shape	control	8.901061697248224	0.0	n	6	2	n_6	07
15	48	colour	control	6.513121793503161	1.0	n	6	minus	n_6	07
16	3	shape	illusion	6.242379472583708	0.0	n	6	2	n_6	07
17	4	shape	illusion	6.93478267035789	0.0	n	6	minus	n_6	07
18	5	shape	illusion	4.992415637798331	0.0	n	6	2	n_6	07
20	11	shape	illusion	16.981702629950632	1.0	n	6	minus	n_6	07
21	22	colour	illusion	8.46989129364465	0.0	n	6	minus	n_6	07
22	21	colour	illusion	7.523789417551598	1.0	n	6	2	n_6	07
23	14	shape	illusion	20.099137262083786	1.0	n	6	2	n_6	07
24	38	shape	control	13.400113297412643	0.0	n	6	minus	n_6	07
25	9	shape	illusion	7.402611432422417	0.0	n	6	minus	n_6	07
26	31	shape	control	6.648348900921519	1.0	n	6	2	n_6	07
27	41	shape	control	10.400398972218682	0.0	n	6	minus	n_6	07
28	20	colour	illusion	5.461163827005294	0.0	n	6	minus	n_6	07
29	42	shape	control	18.061619447930752	0.0	n	6	2	n_6	07
30	19	colour	illusion	6.900555992059706	0.0	n	6	minus	n_6	07
31	44	colour	control	8.89716031138141	0.0	n	6	2	n_6	07
32	49	colour	control	4.940263979729026	1.0	n	6	minus	n_6	07
33	37	shape	control	8.224054953297127	1.0	n	6	minus	n_6	07
34	18	colour	illusion	8.201743143095882	0.0	n	6	2	n_6	07
35	8	shape	illusion	6.8327716412841255	1.0	n	6	minus	n_6	07
36	43	shape	control	9.909697180652984	1.0	n	6	minus	n_6	07
37	36	shape	control	7.501832573491812	1.0	n	6	2	n_6	07
38	33	shape	control	8.05829103252563	1.0	n	6	minus	n_6	07
39	45	colour	control	8.097604748441881	0.0	n	6	2	n_6	07
40	7	shape	illusion	9.327887412519884	1.0	n	6	2	n_6	07
41	10	shape	illusion	6.692208290565759	0.0	n	6	2	n_6	07
42	32	shape	control	6.8193692381319115	1.0	n	6	2	n_6	07
44	40	shape	control	6.640274231605872	1.0	n	6	2	n_6	07
45	6	shape	illusion	5.58556284622864	1.0	n	6	minus	n_6	07
47	28	ambiguous	illusion	24.83208237483723	0.0	n	6	2	n_6	07
48	29	ambiguous	illusion	7.126454662192372	1.0	n	6	2	n_6	07
0	23	ambiguous	illusion	5.700207307467282	1.0	n	7	2	n_7	08
1	24	ambiguous	illusion	6.063204869700713	1.0	n	7	2	n_7	08
2	14	shape	illusion	6.74413857993568	0.0	n	7	2	n_7	08
3	36	shape	control	6.03890905053413	1.0	n	7	2	n_7	08
4	22	colour	illusion	8.814876782536885	0.0	n	7	minus	n_7	08
5	2	shape	illusion	10.174325480827974	1.0	n	7	minus	n_7	08
6	38	shape	control	7.724743013301122	0.0	n	7	minus	n_7	08
7	43	shape	control	6.412813351962542	0.0	n	7	minus	n_7	08
8	12	shape	illusion	12.188574424839315	1.0	n	7	2	n_7	08
9	1	shape	illusion	7.814615014312949	0.0	n	7	2	n_7	08
10	32	shape	control	5.080646089360017	1.0	n	7	2	n_7	08
11	18	colour	illusion	7.346379737356982	1.0	n	7	2	n_7	08
12	44	colour	control	5.451909206136406	1.0	n	7	2	n_7	08
13	40	shape	control	6.9701697684431565	1.0	n	7	2	n_7	08
14	31	shape	control	7.821675867726299	1.0	n	7	2	n_7	08
15	42	shape	control	4.904677465889108	1.0	n	7	2	n_7	08
16	8	shape	illusion	6.729413104296326	0.0	n	7	minus	n_7	08
17	7	shape	illusion	4.9137570952971155	1.0	n	7	2	n_7	08
21	3	shape	illusion	6.386100836685728	1.0	n	7	2	n_7	08
22	10	shape	illusion	5.617410342356379	1.0	n	7	2	n_7	08
23	46	colour	control	6.843160312371764	0.0	n	7	minus	n_7	08
24	6	shape	illusion	7.0148478502596845	0.0	n	7	minus	n_7	08
25	11	shape	illusion	8.702084663786081	0.0	n	7	minus	n_7	08
26	37	shape	control	5.1358601395877495	1.0	n	7	minus	n_7	08
27	49	colour	control	6.4508726688036395	0.0	n	7	minus	n_7	08
28	33	shape	control	6.48167014610226	0.0	n	7	minus	n_7	08
29	21	colour	illusion	9.107480574042713	0.0	n	7	2	n_7	08
30	4	shape	illusion	9.21613667380916	0.0	n	7	minus	n_7	08
31	15	shape	illusion	6.090658521325167	0.0	n	7	2	n_7	08
32	19	colour	illusion	5.875972108311544	0.0	n	7	minus	n_7	08
33	17	colour	illusion	10.283376258999851	0.0	n	7	2	n_7	08
34	47	colour	control	5.506283247807004	0.0	n	7	minus	n_7	08
35	45	colour	control	6.238939684712022	0.0	n	7	2	n_7	08
36	5	shape	illusion	4.567518777615987	0.0	n	7	2	n_7	08
37	16	shape	illusion	6.172619530016164	1.0	n	7	minus	n_7	08
38	35	shape	control	6.90721613140704	1.0	n	7	minus	n_7	08
40	48	colour	control	10.571652770529909	0.0	n	7	minus	n_7	08
41	34	shape	control	6.296655120770082	1.0	n	7	2	n_7	08
42	13	shape	illusion	5.79750850138953	0.0	n	7	minus	n_7	08
43	20	colour	illusion	4.338471176321036	0.0	n	7	minus	n_7	08
44	9	shape	illusion	6.526935788175251	0.0	n	7	minus	n_7	08
45	39	shape	control	5.620989192133494	1.0	n	7	2	n_7	08
46	41	shape	control	3.5424141513685754	1.0	n	7	minus	n_7	08
47	28	ambiguous	illusion	7.062693894884433	1.0	n	7	2	n_7	08
48	29	ambiguous	illusion	6.66779545771351	1.0	n	7	2	n_7	08
0	23	ambiguous	illusion	13.705093782720725	1.0	n	8	2	n_8	09
1	24	ambiguous	illusion	6.17260048496064	1.0	n	8	2	n_8	09
2	47	colour	control	10.732288907835027	0.0	n	8	minus	n_8	09
3	6	shape	illusion	7.3592367713845315	0.0	n	8	minus	n_8	09
4	41	shape	control	9.45139498960998	1.0	n	8	minus	n_8	09
6	2	shape	illusion	15.744004859327106	0.0	n	8	minus	n_8	09
7	19	colour	illusion	21.261093137620264	0.0	n	8	minus	n_8	09
8	11	shape	illusion	10.247722292278922	0.0	n	8	minus	n_8	09
9	20	colour	illusion	13.00742878769779	0.0	n	8	minus	n_8	09
10	17	colour	illusion	25.52220491508342	1.0	n	8	2	n_8	09
12	22	colour	illusion	14.836680941003578	1.0	n	8	minus	n_8	09
13	35	shape	control	9.187680522823939	1.0	n	8	minus	n_8	09
14	33	shape	control	11.663606355701633	1.0	n	8	minus	n_8	09
16	3	shape	illusion	9.14182651007104	0.0	n	8	2	n_8	09
17	46	colour	control	8.305822276395702	1.0	n	8	minus	n_8	09
18	38	shape	control	18.77865105890487	0.0	n	8	minus	n_8	09
19	45	colour	control	6.727118782802791	0.0	n	8	2	n_8	09
20	13	shape	illusion	6.191929596503543	1.0	n	8	minus	n_8	09
21	9	shape	illusion	6.242497058146911	1.0	n	8	minus	n_8	09
22	32	shape	control	4.5759589793797195	1.0	n	8	2	n_8	09
23	49	colour	control	10.926742176940024	1.0	n	8	minus	n_8	09
24	1	shape	illusion	6.731530347284206	0.0	n	8	2	n_8	09
25	37	shape	control	4.883286625670736	1.0	n	8	minus	n_8	09
26	7	shape	illusion	7.270186544301397	1.0	n	8	2	n_8	09
27	36	shape	control	4.6047806333663175	1.0	n	8	2	n_8	09
28	16	shape	illusion	7.133092122963718	0.0	n	8	minus	n_8	09
29	14	shape	illusion	12.216692627374867	0.0	n	8	2	n_8	09
30	42	shape	control	4.704541476081432	1.0	n	8	2	n_8	09
31	31	shape	control	5.7726222854707885	0.0	n	8	2	n_8	09
32	21	colour	illusion	6.176921686726928	1.0	n	8	2	n_8	09
33	8	shape	illusion	7.913432924122389	0.0	n	8	minus	n_8	09
35	5	shape	illusion	5.44127436551571	0.0	n	8	2	n_8	09
36	39	shape	control	5.569586989713571	1.0	n	8	2	n_8	09
37	48	colour	control	5.328180767572121	1.0	n	8	minus	n_8	09
38	44	colour	control	5.592958515815552	1.0	n	8	2	n_8	09
39	10	shape	illusion	8.122288713333546	0.0	n	8	2	n_8	09
40	12	shape	illusion	5.429739544670157	1.0	n	8	2	n_8	09
41	40	shape	control	5.016874730534255	1.0	n	8	2	n_8	09
42	4	shape	illusion	5.966827968839425	0.0	n	8	minus	n_8	09
43	18	colour	illusion	7.884629909976867	1.0	n	8	2	n_8	09
44	34	shape	control	4.746950764882058	1.0	n	8	2	n_8	09
45	43	shape	control	4.762149935651905	1.0	n	8	minus	n_8	09
46	15	shape	illusion	4.8730732075764545	0.0	n	8	2	n_8	09
47	28	ambiguous	illusion	7.51861552974333	0.0	n	8	2	n_8	09
48	29	ambiguous	illusion	15.075334544651925	1.0	n	8	2	n_8	09
0	23	ambiguous	illusion	25.22998846747032	1.0	n	9	2	n_9	10
1	24	ambiguous	illusion	18.05220232417332	1.0	n	9	2	n_9	10
2	12	shape	illusion	20.026506988810297	1.0	n	9	2	n_9	10
3	46	colour	control	10.18282098806958	1.0	n	9	minus	n_9	10
4	14	shape	illusion	7.501909796653081	0.0	n	9	2	n_9	10
5	17	colour	illusion	7.7720862532730735	0.0	n	9	2	n_9	10
6	3	shape	illusion	8.639474722850537	0.0	n	9	2	n_9	10
8	33	shape	control	25.49058149721895	0.0	n	9	minus	n_9	10
9	37	shape	control	7.266828538108029	1.0	n	9	minus	n_9	10
10	38	shape	control	20.832736986192685	1.0	n	9	minus	n_9	10
11	42	shape	control	5.550679916784247	1.0	n	9	2	n_9	10
12	22	colour	illusion	15.580525909290829	1.0	n	9	minus	n_9	10
13	16	shape	illusion	6.879229776132887	0.0	n	9	minus	n_9	10
14	36	shape	control	7.132841289536144	1.0	n	9	2	n_9	10
15	44	colour	control	6.0955562885515056	0.0	n	9	2	n_9	10
16	49	colour	control	12.149343829043119	0.0	n	9	minus	n_9	10
17	40	shape	control	7.623713328702934	1.0	n	9	2	n_9	10
19	31	shape	control	8.794569823673099	1.0	n	9	2	n_9	10
20	32	shape	control	5.692070919790013	1.0	n	9	2	n_9	10
21	9	shape	illusion	14.389905673145675	0.0	n	9	minus	n_9	10
22	10	shape	illusion	6.47371952855201	1.0	n	9	2	n_9	10
23	35	shape	control	7.0826500667396886	1.0	n	9	minus	n_9	10
24	47	colour	control	13.041229806929323	0.0	n	9	minus	n_9	10
25	20	colour	illusion	9.293340389544936	0.0	n	9	minus	n_9	10
26	4	shape	illusion	7.917863750819607	1.0	n	9	minus	n_9	10
27	19	colour	illusion	7.83179525748028	0.0	n	9	minus	n_9	10
28	1	shape	illusion	11.262965586380005	0.0	n	9	2	n_9	10
29	41	shape	control	5.4898103656614685	1.0	n	9	minus	n_9	10
30	34	shape	control	5.748961626581148	1.0	n	9	2	n_9	10
33	39	shape	control	8.040323737479639	1.0	n	9	2	n_9	10
34	18	colour	illusion	7.172377686702702	1.0	n	9	2	n_9	10
35	7	shape	illusion	5.707395893187594	1.0	n	9	2	n_9	10
36	21	colour	illusion	12.858759738423032	1.0	n	9	2	n_9	10
37	8	shape	illusion	8.196068809410235	0.0	n	9	minus	n_9	10
38	43	shape	control	4.770792389340841	1.0	n	9	minus	n_9	10
39	5	shape	illusion	5.892244596608634	0.0	n	9	2	n_9	10
40	13	shape	illusion	11.251292445666197	0.0	n	9	minus	n_9	10
41	48	colour	control	10.598955264644246	0.0	n	9	minus	n_9	10
42	45	colour	control	8.337323658867263	0.0	n	9	2	n_9	10
43	15	shape	illusion	5.266609719904637	0.0	n	9	2	n_9	10
44	2	shape	illusion	8.869660937141587	1.0	n	9	minus	n_9	10
45	6	shape	illusion	6.00510211110941	1.0	n	9	minus	n_9	10
46	11	shape	illusion	12.431648892415069	0.0	n	9	minus	n_9	10
47	28	ambiguous	illusion	13.363167709565005	1.0	n	9	2	n_9	10
48	29	ambiguous	illusion	7.878894660106425	0.0	n	9	2	n_9	10
0	23	ambiguous	illusion	5.65471176374831	1.0	n	10	2	n_10	11
1	24	ambiguous	illusion	6.369672688489118	1.0	n	10	2	n_10	11
2	40	shape	control	10.305761969558262	1.0	n	10	2	n_10	11
3	3	shape	illusion	5.501372476398501	1.0	n	10	2	n_10	11
4	14	shape	illusion	12.294337228027869	1.0	n	10	2	n_10	11
5	18	colour	illusion	12.566521949492197	1.0	n	10	2	n_10	11
7	32	shape	control	6.3142407697214376	1.0	n	10	2	n_10	11
8	1	shape	illusion	9.094618612028173	1.0	n	10	2	n_10	11
9	19	colour	illusion	11.553499429856856	1.0	n	10	minus	n_10	11
10	8	shape	illusion	5.573550066010284	1.0	n	10	minus	n_10	11
11	9	shape	illusion	12.5565709890825	1.0	n	10	minus	n_10	11
12	42	shape	control	6.450050287664451	1.0	n	10	2	n_10	11
13	41	shape	control	6.309883045722928	1.0	n	10	minus	n_10	11
14	21	colour	illusion	6.3929354948249975	1.0	n	10	2	n_10	11
15	49	colour	control	8.138778151569568	0.0	n	10	minus	n_10	11
16	43	shape	control	7.269719369705854	1.0	n	10	minus	n_10	11
17	36	shape	control	6.75163931304087	0.0	n	10	2	n_10	11
18	47	colour	control	8.036361912340906	1.0	n	10	minus	n_10	11
19	35	shape	control	7.433094713433093	1.0	n	10	minus	n_10	11
20	46	colour	control	8.754932527001984	1.0	n	10	minus	n_10	11
21	13	shape	illusion	7.616734648890087	1.0	n	10	minus	n_10	11
22	16	shape	illusion	5.174196309103536	0.0	n	10	minus	n_10	11
23	11	shape	illusion	9.650434273090466	1.0	n	10	minus	n_10	11
24	34	shape	control	5.892614561459595	1.0	n	10	2	n_10	11
25	38	shape	control	9.104458947678722	1.0	n	10	minus	n_10	11
26	44	colour	control	5.977067852282745	0.0	n	10	2	n_10	11
27	48	colour	control	5.6184661492288805	1.0	n	10	minus	n_10	11
28	12	shape	illusion	7.331610882883068	1.0	n	10	2	n_10	11
29	2	shape	illusion	12.622493214609676	0.0	n	10	minus	n_10	11
30	37	shape	control	4.604301317529462	1.0	n	10	minus	n_10	11
32	22	colour	illusion	12.529275444302586	1.0	n	10	minus	n_10	11
33	5	shape	illusion	8.536160113331789	1.0	n	10	2	n_10	11
35	17	colour	illusion	9.821052499350117	1.0	n	10	2	n_10	11
36	31	shape	control	7.860934953452669	1.0	n	10	2	n_10	11
37	33	shape	control	8.953427787156215	1.0	n	10	minus	n_10	11
38	4	shape	illusion	9.430504959474092	1.0	n	10	minus	n_10	11
39	39	shape	control	7.252554702524321	1.0	n	10	2	n_10	11
40	10	shape	illusion	6.3030619960600225	1.0	n	10	2	n_10	11
42	6	shape	illusion	9.059057817442408	1.0	n	10	minus	n_10	11
43	7	shape	illusion	9.634016829551001	1.0	n	10	2	n_10	11
44	15	shape	illusion	6.575545363850324	1.0	n	10	2	n_10	11
45	45	colour	control	9.058508340620392	0.0	n	10	2	n_10	11
46	20	colour	illusion	6.285832493854286	1.0	n	10	minus	n_10	11
47	28	ambiguous	illusion	10.861356786322176	1.0	n	10	2	n_10	11
48	29	ambiguous	illusion	8.519251544491452	0.0	n	10	2	n_10	11
0	23	ambiguous	illusion	17.677805999022894	1.0	n	11	2	n_11	12
1	24	ambiguous	illusion	6.472845066176888	1.0	n	11	2	n_11	12
2	22	colour	illusion	15.763974176210468	1.0	n	11	minus	n_11	12
3	39	shape	control	9.518327645411773	1.0	n	11	2	n_11	12
4	32	shape	control	7.305814648016168	1.0	n	11	2	n_11	12
5	8	shape	illusion	10.04097654511861	0.0	n	11	minus	n_11	12
6	10	shape	illusion	8.553759580388943	1.0	n	11	2	n_11	12
7	3	shape	illusion	8.405325062545671	1.0	n	11	2	n_11	12
8	2	shape	illusion	15.481307252364786	0.0	n	11	minus	n_11	12
9	11	shape	illusion	12.997061757791016	1.0	n	11	minus	n_11	12
10	21	colour	illusion	14.114370196635717	1.0	n	11	2	n_11	12
11	14	shape	illusion	10.281473148979783	1.0	n	11	2	n_11	12
13	6	shape	illusion	10.998265663129132	0.0	n	11	minus	n_11	12
14	38	shape	control	11.679812642991235	1.0	n	11	minus	n_11	12
15	15	shape	illusion	11.585747154755154	1.0	n	11	2	n_11	12
16	33	shape	control	8.971854305977104	1.0	n	11	minus	n_11	12
17	20	colour	illusion	14.045858217150451	0.0	n	11	minus	n_11	12
18	45	colour	control	7.770684195897047	0.0	n	11	2	n_11	12
19	31	shape	control	8.203196609776569	1.0	n	11	2	n_11	12
20	17	colour	illusion	11.722363058299381	0.0	n	11	2	n_11	12
21	7	shape	illusion	7.012764800416335	1.0	n	11	2	n_11	12
22	42	shape	control	5.490674697564828	1.0	n	11	2	n_11	12
23	44	colour	control	7.613168317393503	1.0	n	11	2	n_11	12
24	40	shape	control	6.897177326220117	1.0	n	11	2	n_11	12
25	12	shape	illusion	6.065193641952647	0.0	n	11	2	n_11	12
26	19	colour	illusion	8.314102995298526	1.0	n	11	minus	n_11	12
27	47	colour	control	7.213345317006315	0.0	n	11	minus	n_11	12
28	16	shape	illusion	9.167119566318432	1.0	n	11	minus	n_11	12
29	46	colour	control	5.508279027248137	1.0	n	11	minus	n_11	12
31	5	shape	illusion	8.017325133863777	1.0	n	11	2	n_11	12
32	36	shape	control	5.665858525117072	1.0	n	11	2	n_11	12
33	34	shape	control	5.812506838068657	1.0	n	11	2	n_11	12
34	49	colour	control	5.3581138195040685	1.0	n	11	minus	n_11	12
35	35	shape	control	7.229115625968916	1.0	n	11	minus	n_11	12
36	43	shape	control	15.348755694338253	1.0	n	11	minus	n_11	12
37	9	shape	illusion	9.522699146853483	0.0	n	11	minus	n_11	12
38	18	colour	illusion	13.613845843385208	1.0	n	11	2	n_11	12
39	48	colour	control	14.105475236669008	0.0	n	11	minus	n_11	12
40	13	shape	illusion	5.837435094063038	0.0	n	11	minus	n_11	12
41	4	shape	illusion	5.798631332660079	1.0	n	11	minus	n_11	12
43	1	shape	illusion	9.64262854151093	0.0	n	11	2	n_11	12
44	41	shape	control	5.404115484143404	1.0	n	11	minus	n_11	12
45	37	shape	control	6.047417904677785	1.0	n	11	minus	n_11	12
47	28	ambiguous	illusion	9.488657923122446	0.0	n	11	2	n_11	12
48	29	ambiguous	illusion	6.535929948999184	0.0	n	11	2	n_11	12
0	23	ambiguous	illusion	31.345251988400374	1.0	n	12	2	n_12	13
1	24	ambiguous	illusion	7.6967945694405	1.0	n	12	2	n_12	13
2	43	shape	control	9.586255354946843	0.0	n	12	minus	n_12	13
3	38	shape	control	9.91439137178986	0.0	n	12	minus	n_12	13
4	21	colour	illusion	6.6549392741426345	0.0	n	12	2	n_12	13
5	45	colour	control	9.06238157525786	0.0	n	12	2	n_12	13
6	39	shape	control	5.81730050749411	1.0	n	12	2	n_12	13
7	18	colour	illusion	8.873472128346293	1.0	n	12	2	n_12	13
8	10	shape	illusion	5.874994934783898	1.0	n	12	2	n_12	13
9	34	shape	control	4.8182693819462665	1.0	n	12	2	n_12	13
10	47	colour	control	8.581868878181012	0.0	n	12	minus	n_12	13
11	12	shape	illusion	7.053960755519255	1.0	n	12	2	n_12	13
12	7	shape	illusion	8.886571181273212	1.0	n	12	2	n_12	13
13	36	shape	control	5.008230772846217	1.0	n	12	2	n_12	13
14	13	shape	illusion	6.905897207729139	0.0	n	12	minus	n_12	13
15	22	colour	illusion	7.859575202648557	1.0	n	12	minus	n_12	13
16	14	shape	illusion	13.872948992872805	1.0	n	12	2	n_12	13
18	6	shape	illusion	7.340271463142017	0.0	n	12	minus	n_12	13
19	16	shape	illusion	7.340644668232926	0.0	n	12	minus	n_12	13
20	32	shape	control	4.575112285700016	1.0	n	12	2	n_12	13
21	48	colour	control	6.9601031196862095	1.0	n	12	minus	n_12	13
22	40	shape	control	5.546689537128259	1.0	n	12	2	n_12	13
23	41	shape	control	4.251628162923225	0.0	n	12	minus	n_12	13
24	5	shape	illusion	7.0735947470875535	0.0	n	12	2	n_12	13
25	3	shape	illusion	7.219621672963512	0.0	n	12	2	n_12	13
26	17	colour	illusion	8.265181869607659	0.0	n	12	2	n_12	13
27	1	shape	illusion	5.6060096960382	0.0	n	12	2	n_12	13
29	19	colour	illusion	4.871812763694834	0.0	n	12	minus	n_12	13
30	4	shape	illusion	5.9586269132332745	1.0	n	12	minus	n_12	13
31	35	shape	control	5.804543457928957	1.0	n	12	minus	n_12	13
32	44	colour	control	4.364900973007933	1.0	n	12	2	n_12	13
33	46	colour	control	5.197880551679192	1.0	n	12	minus	n_12	13
34	33	shape	control	5.6114335289721575	1.0	n	12	minus	n_12	13
35	15	shape	illusion	5.144394710780034	0.0	n	12	2	n_12	13
38	37	shape	control	4.444349488534499	1.0	n	12	minus	n_12	13
39	8	shape	illusion	4.547313166481216	1.0	n	12	minus	n_12	13
40	11	shape	illusion	6.157794029691104	0.0	n	12	minus	n_12	13
41	31	shape	control	5.491844597561794	1.0	n	12	2	n_12	13
42	2	shape	illusion	9.475144784124495	0.0	n	12	minus	n_12	13
43	20	colour	illusion	3.9468111833484727	0.0	n	12	minus	n_12	13
44	49	colour	control	3.7342370488513548	1.0	n	12	minus	n_12	13
45	9	shape	illusion	6.504874763556472	0.0	n	12	minus	n_12	13
46	42	shape	control	4.2591311655833115	1.0	n	12	2	n_12	13
47	28	ambiguous	illusion	6.524492141215888	1.0	n	12	2	n_12	13
48	29	ambiguous	illusion	5.223053052664	0.0	n	12	2	n_12	13
0	23	ambiguous	illusion	5.49311046834373	1.0	y	2	2	y_2	14
1	24	ambiguous	illusion	5.2713151217158165	1.0	y	2	2	y_2	14
2	20	colour	illusion	6.756554618239534	0.0	y	2	minus	y_2	14
3	11	shape	illusion	10.447152972564254	1.0	y	2	minus	y_2	14
5	3	shape	illusion	7.386370543504198	1.0	y	2	2	y_2	14
6	43	shape	control	6.427559828543964	0.0	y	2	minus	y_2	14
7	37	shape	control	5.870908606120793	1.0	y	2	minus	y_2	14
8	49	colour	control	4.8191852506806745	1.0	y	2	minus	y_2	14
9	31	shape	control	6.5801968715477415	1.0	y	2	2	y_2	14
11	48	colour	control	6.6958901078769495	1.0	y	2	minus	y_2	14
12	17	colour	illusion	7.325979555896082	0.0	y	2	2	y_2	14
13	8	shape	illusion	4.8219399287299884	0.0	y	2	minus	y_2	14
14	6	shape	illusion	7.330845829608734	0.0	y	2	minus	y_2	14
15	39	shape	control	5.798791799342324	1.0	y	2	2	y_2	14
16	19	colour	illusion	7.29587584417186	0.0	y	2	minus	y_2	14
17	5	shape	illusion	4.920544273811174	0.0	y	2	2	y_2	14
18	34	shape	control	4.505775179694865	1.0	y	2	2	y_2	14
19	14	shape	illusion	19.944516618431408	1.0	y	2	2	y_2	14
20	22	colour	illusion	10.088614078438695	0.0	y	2	minus	y_2	14
21	38	shape	control	8.33132560878039	0.0	y	2	minus	y_2	14
22	16	shape	illusion	5.527148855540871	1.0	y	2	minus	y_2	14
23	36	shape	control	5.435057998980483	1.0	y	2	2	y_2	14
24	42	shape	control	5.064764515142997	1.0	y	2	2	y_2	14
25	46	colour	control	6.127878978944863	0.0	y	2	minus	y_2	14
26	33	shape	control	5.74868040466754	1.0	y	2	minus	y_2	14
28	10	shape	illusion	6.37094912800967	0.0	y	2	2	y_2	14
29	2	shape	illusion	12.033632763082096	1.0	y	2	minus	y_2	14
30	41	shape	control	3.8780623404954895	1.0	y	2	minus	y_2	14
31	18	colour	illusion	7.054438727255728	1.0	y	2	2	y_2	14
32	32	shape	control	5.209973895798612	1.0	y	2	2	y_2	14
33	12	shape	illusion	6.214261922147671	1.0	y	2	2	y_2	14
34	1	shape	illusion	8.265725937494606	1.0	y	2	2	y_2	14
35	35	shape	control	6.537254204347846	1.0	y	2	minus	y_2	14
36	7	shape	illusion	9.377705342648367	1.0	y	2	2	y_2	14
37	9	shape	illusion	16.54705037113945	1.0	y	2	minus	y_2	14
38	44	colour	control	5.2167722532030885	1.0	y	2	2	y_2	14
39	13	shape	illusion	7.134585351660463	0.0	y	2	minus	y_2	14
41	47	colour	control	6.050692478569545	1.0	y	2	minus	y_2	14
42	4	shape	illusion	9.48749575533202	1.0	y	2	minus	y_2	14
43	15	shape	illusion	4.629343034814156	0.0	y	2	2	y_2	14
44	21	colour	illusion	5.9063924091160525	0.0	y	2	2	y_2	14
45	45	colour	control	6.86526066515853	0.0	y	2	2	y_2	14
46	40	shape	control	10.953531928412303	1.0	y	2	2	y_2	14
47	28	ambiguous	illusion	9.714724682125961	1.0	y	2	2	y_2	14
48	29	ambiguous	illusion	5.738854656896365	0.0	y	2	2	y_2	14
0	23	ambiguous	illusion	6.587943441169045	1.0	n	13	2	n_13	15
1	24	ambiguous	illusion	13.304642349752612	1.0	n	13	2	n_13	15
2	11	shape	illusion	7.565409218406786	0.0	n	13	minus	n_13	15
3	44	colour	control	6.45077117207984	1.0	n	13	2	n_13	15
4	15	shape	illusion	5.811324409332883	0.0	n	13	2	n_13	15
5	36	shape	control	6.948515318490537	1.0	n	13	2	n_13	15
6	47	colour	control	6.575481744483112	0.0	n	13	minus	n_13	15
7	14	shape	illusion	8.112068958531381	0.0	n	13	2	n_13	15
8	17	colour	illusion	6.540995185188876	0.0	n	13	2	n_13	15
9	7	shape	illusion	4.762453794915928	1.0	n	13	2	n_13	15
10	18	colour	illusion	7.665338224056541	1.0	n	13	2	n_13	15
11	22	colour	illusion	9.6906802085432	0.0	n	13	minus	n_13	15
12	20	colour	illusion	5.2879367955774805	0.0	n	13	minus	n_13	15
14	38	shape	control	7.447768094847561	1.0	n	13	minus	n_13	15
15	19	colour	illusion	5.831999082583934	0.0	n	13	minus	n_13	15
16	10	shape	illusion	5.665743037730862	1.0	n	13	2	n_13	15
17	3	shape	illusion	5.5249521639088925	1.0	n	13	2	n_13	15
18	48	colour	control	5.5010965223300445	1.0	n	13	minus	n_13	15
19	2	shape	illusion	11.401199528972938	0.0	n	13	minus	n_13	15
20	5	shape	illusion	4.185411147247578	0.0	n	13	2	n_13	15
21	40	shape	control	8.866257503639645	0.0	n	13	2	n_13	15
22	41	shape	control	4.803502874217884	1.0	n	13	minus	n_13	15
23	39	shape	control	6.39164811439514	1.0	n	13	2	n_13	15
24	31	shape	control	5.8519386887601295	1.0	n	13	2	n_13	15
25	33	shape	control	7.648268378094144	0.0	n	13	minus	n_13	15
26	35	shape	control	6.719590550617795	0.0	n	13	minus	n_13	15
27	46	colour	control	5.6074142090819805	0.0	n	13	minus	n_13	15
28	21	colour	illusion	7.07899377664944	1.0	n	13	2	n_13	15
29	9	shape	illusion	8.051681617893339	1.0	n	13	minus	n_13	15
31	6	shape	illusion	6.4621140593935715	1.0	n	13	minus	n_13	15
32	32	shape	control	5.359957160257181	1.0	n	13	2	n_13	15
34	34	shape	control	4.437844284104359	1.0	n	13	2	n_13	15
36	8	shape	illusion	5.917106801924093	0.0	n	13	minus	n_13	15
37	12	shape	illusion	6.222775165917483	0.0	n	13	2	n_13	15
38	45	colour	control	6.263130510471456	1.0	n	13	2	n_13	15
39	37	shape	control	4.9952099074398575	0.0	n	13	minus	n_13	15
40	42	shape	control	5.511585208214456	1.0	n	13	2	n_13	15
41	16	shape	illusion	5.391223850210736	1.0	n	13	minus	n_13	15
42	1	shape	illusion	6.485689289496803	0.0	n	13	2	n_13	15
43	13	shape	illusion	7.360161390581197	1.0	n	13	minus	n_13	15
44	4	shape	illusion	6.46139195932119	0.0	n	13	minus	n_13	15
45	49	colour	control	5.481462856419967	0.0	n	13	minus	n_13	15
46	43	shape	control	6.169438634055041	1.0	n	13	minus	n_13	15
47	28	ambiguous	illusion	7.244908221971855	1.0	n	13	2	n_13	15
48	29	ambiguous	illusion	5.6099695194352535	1.0	n	13	2	n_13	15
0	23	ambiguous	illusion	4.536404898046385	1.0	n	14	2	n_14	16
1	24	ambiguous	illusion	4.9550708493779885	1.0	n	14	2	n_14	16
2	36	shape	control	8.745158217243443	1.0	n	14	2	n_14	16
3	5	shape	illusion	5.674481054492389	0.0	n	14	2	n_14	16
4	14	shape	illusion	9.297265909756787	0.0	n	14	2	n_14	16
5	47	colour	control	7.992435087997364	1.0	n	14	minus	n_14	16
7	43	shape	control	6.852758342211017	1.0	n	14	minus	n_14	16
8	37	shape	control	4.709766958243564	1.0	n	14	minus	n_14	16
9	15	shape	illusion	4.828495839075913	0.0	n	14	2	n_14	16
10	3	shape	illusion	9.469117742998606	1.0	n	14	2	n_14	16
11	35	shape	control	5.947616560385541	1.0	n	14	minus	n_14	16
12	7	shape	illusion	5.9702209340066466	1.0	n	14	2	n_14	16
13	11	shape	illusion	6.668921944323301	1.0	n	14	minus	n_14	16
14	39	shape	control	6.483745508726315	1.0	n	14	2	n_14	16
15	31	shape	control	5.7914748154362305	1.0	n	14	2	n_14	16
16	8	shape	illusion	5.901212436296191	0.0	n	14	minus	n_14	16
17	33	shape	control	6.50218146144698	1.0	n	14	minus	n_14	16
18	41	shape	control	4.537694284194913	1.0	n	14	minus	n_14	16
20	2	shape	illusion	9.911435137029002	1.0	n	14	minus	n_14	16
21	6	shape	illusion	6.203503386158445	1.0	n	14	minus	n_14	16
22	17	colour	illusion	5.756042629975128	0.0	n	14	2	n_14	16
23	12	shape	illusion	5.104797675377085	1.0	n	14	2	n_14	16
24	49	colour	control	4.101724543841557	1.0	n	14	minus	n_14	16
25	19	colour	illusion	6.044353343671901	1.0	n	14	minus	n_14	16
26	9	shape	illusion	7.565175390148398	0.0	n	14	minus	n_14	16
27	10	shape	illusion	5.15432153043912	1.0	n	14	2	n_14	16
30	34	shape	control	5.809839045546142	1.0	n	14	2	n_14	16
31	38	shape	control	7.089922730030594	0.0	n	14	minus	n_14	16
32	42	shape	control	4.794885083763802	1.0	n	14	2	n_14	16
33	22	colour	illusion	7.050245943722075	1.0	n	14	minus	n_14	16
34	20	colour	illusion	5.247714095033189	1.0	n	14	minus	n_14	16
35	46	colour	control	5.421123565091874	1.0	n	14	minus	n_14	16
36	44	colour	control	4.622363839485843	1.0	n	14	2	n_14	16
37	32	shape	control	4.498523608287542	1.0	n	14	2	n_14	16
38	18	colour	illusion	6.980445660802616	1.0	n	14	2	n_14	16
39	45	colour	control	6.214374832090472	0.0	n	14	2	n_14	16
40	16	shape	illusion	4.908682123362269	0.0	n	14	minus	n_14	16
41	13	shape	illusion	6.403617575037969	1.0	n	14	minus	n_14	16
42	1	shape	illusion	6.005913671099733	0.0	n	14	2	n_14	16
43	21	colour	illusion	7.077466498043577	1.0	n	14	2	n_14	16
44	40	shape	control	5.680675943061032	1.0	n	14	2	n_14	16
45	48	colour	control	5.206327717222848	0.0	n	14	minus	n_14	16
46	4	shape	illusion	6.247595367772193	1.0	n	14	minus	n_14	16
47	28	ambiguous	illusion	7.4631801643627105	1.0	n	14	2	n_14	16
48	29	ambiguous	illusion	4.818230591030441	0.0	n	14	2	n_14	16
0	23	ambiguous	illusion	5.458681662709751	1.0	n	15	2	n_15	17
1	24	ambiguous	illusion	6.273167221197809	1.0	n	15	2	n_15	17
2	15	shape	illusion	5.970384354646968	1.0	n	15	2	n_15	17
3	42	shape	control	4.213441978466335	1.0	n	15	2	n_15	17
4	43	shape	control	5.017593039450047	1.0	n	15	minus	n_15	17
5	48	colour	control	6.768755893285288	1.0	n	15	minus	n_15	17
6	34	shape	control	5.4031856056139995	1.0	n	15	2	n_15	17
7	19	colour	illusion	7.060805129645133	0.0	n	15	minus	n_15	17
8	33	shape	control	9.699232247003462	1.0	n	15	minus	n_15	17
9	36	shape	control	5.791602086187595	1.0	n	15	2	n_15	17
10	22	colour	illusion	9.49833032869492	1.0	n	15	minus	n_15	17
11	1	shape	illusion	7.36299436230138	1.0	n	15	2	n_15	17
12	5	shape	illusion	6.011064687454791	1.0	n	15	2	n_15	17
13	14	shape	illusion	7.495091073164303	1.0	n	15	2	n_15	17
14	38	shape	control	9.728633535817153	0.0	n	15	minus	n_15	17
15	11	shape	illusion	6.905004799722519	1.0	n	15	minus	n_15	17
16	49	colour	control	7.1777862601913975	1.0	n	15	minus	n_15	17
17	9	shape	illusion	8.47775898950158	0.0	n	15	minus	n_15	17
18	17	colour	illusion	6.810790440751816	1.0	n	15	2	n_15	17
19	10	shape	illusion	5.278370938926173	1.0	n	15	2	n_15	17
20	20	colour	illusion	6.422677057893679	0.0	n	15	minus	n_15	17
21	12	shape	illusion	5.984430583532003	1.0	n	15	2	n_15	17
23	4	shape	illusion	5.558602606073009	1.0	n	15	minus	n_15	17
24	2	shape	illusion	9.748358794756996	0.0	n	15	minus	n_15	17
25	45	colour	control	6.14548852422604	1.0	n	15	2	n_15	17
26	37	shape	control	5.297270783365775	1.0	n	15	minus	n_15	17
27	21	colour	illusion	6.4822341381225215	1.0	n	15	2	n_15	17
28	3	shape	illusion	5.143422759315854	1.0	n	15	2	n_15	17
29	35	shape	control	5.730967550309969	1.0	n	15	minus	n_15	17
30	31	shape	control	5.1644422617087	1.0	n	15	2	n_15	17
31	32	shape	control	4.7526126982543255	1.0	n	15	2	n_15	17
33	39	shape	control	5.665570166108183	1.0	n	15	2	n_15	17
34	18	colour	illusion	7.149127722864933	1.0	n	15	2	n_15	17
35	41	shape	control	5.21806989157767	0.0	n	15	minus	n_15	17
36	46	colour	control	6.4209792244346335	1.0	n	15	minus	n_15	17
38	6	shape	illusion	6.014496418138607	1.0	n	15	minus	n_15	17
39	47	colour	control	7.219556204973288	1.0	n	15	minus	n_15	17
40	13	shape	illusion	6.976941071401598	0.0	n	15	minus	n_15	17
42	7	shape	illusion	5.023836528218227	1.0	n	15	2	n_15	17
43	44	colour	control	4.6441863791615114	1.0	n	15	2	n_15	17
44	40	shape	control	5.689417229808441	1.0	n	15	2	n_15	17
45	16	shape	illusion	5.064721897715799	0.0	n	15	minus	n_15	17
46	8	shape	illusion	5.286686675978443	1.0	n	15	minus	n_15	17
47	28	ambiguous	illusion	7.34305717808752	1.0	n	15	2	n_15	17
48	29	ambiguous	illusion	4.650714731156769	0.0	n	15	2	n_15	17
0	23	ambiguous	illusion	13.783276981576819	1.0	n	16	2	n_16	18
1	24	ambiguous	illusion	5.05469497113245	1.0	n	16	2	n_16	18
2	41	shape	control	7.560070539648223	0.0	n	16	minus	n_16	18
3	3	shape	illusion	6.233987159580464	1.0	n	16	2	n_16	18
4	47	colour	control	11.741696760556804	0.0	n	16	minus	n_16	18
5	44	colour	control	7.777347080352229	0.0	n	16	2	n_16	18
6	49	colour	control	9.725732951027569	0.0	n	16	minus	n_16	18
8	36	shape	control	9.832980527037762	1.0	n	16	2	n_16	18
9	37	shape	control	10.045743389339805	0.0	n	16	minus	n_16	18
10	1	shape	illusion	6.250256500442448	1.0	n	16	2	n_16	18
11	39	shape	control	5.2093574441050805	1.0	n	16	2	n_16	18
12	22	colour	illusion	6.795582114179523	0.0	n	16	minus	n_16	18
13	32	shape	control	7.06736033895413	1.0	n	16	2	n_16	18
14	2	shape	illusion	11.916220796229027	0.0	n	16	minus	n_16	18
15	31	shape	control	8.136018173036973	1.0	n	16	2	n_16	18
17	35	shape	control	10.356588292881495	1.0	n	16	minus	n_16	18
18	8	shape	illusion	4.9335842148093425	0.0	n	16	minus	n_16	18
20	20	colour	illusion	3.9403800582858817	0.0	n	16	minus	n_16	18
21	7	shape	illusion	7.727498873505282	1.0	n	16	2	n_16	18
22	6	shape	illusion	8.415243825349535	0.0	n	16	minus	n_16	18
23	14	shape	illusion	8.836866934215323	1.0	n	16	2	n_16	18
24	48	colour	control	8.543603049153718	0.0	n	16	minus	n_16	18
25	46	colour	control	8.14303688419659	0.0	n	16	minus	n_16	18
26	12	shape	illusion	7.597445855309161	1.0	n	16	2	n_16	18
27	33	shape	control	8.137333902793216	0.0	n	16	minus	n_16	18
28	16	shape	illusion	6.167779249154592	0.0	n	16	minus	n_16	18
29	45	colour	control	7.242530285691828	1.0	n	16	2	n_16	18
30	18	colour	illusion	9.477071372767568	1.0	n	16	2	n_16	18
31	9	shape	illusion	10.088613406423065	0.0	n	16	minus	n_16	18
32	21	colour	illusion	9.668167849351448	1.0	n	16	2	n_16	18
33	11	shape	illusion	10.601340771981086	0.0	n	16	minus	n_16	18
34	13	shape	illusion	5.692960460842188	0.0	n	16	minus	n_16	18
35	4	shape	illusion	7.226459904888543	0.0	n	16	minus	n_16	18
36	10	shape	illusion	6.319905487894175	1.0	n	16	2	n_16	18
37	19	colour	illusion	6.4249973255873565	0.0	n	16	minus	n_16	18
38	15	shape	illusion	6.9716050363240365	1.0	n	16	2	n_16	18
39	42	shape	control	5.332029489852174	1.0	n	16	2	n_16	18
40	5	shape	illusion	4.488255683530952	1.0	n	16	2	n_16	18
41	38	shape	control	7.955743745927067	0.0	n	16	minus	n_16	18
43	40	shape	control	7.014982786509791	1.0	n	16	2	n_16	18
44	43	shape	control	6.896434198113639	0.0	n	16	minus	n_16	18
45	34	shape	control	8.257028841509054	1.0	n	16	2	n_16	18
46	17	colour	illusion	6.91979397300929	1.0	n	16	2	n_16	18
47	28	ambiguous	illusion	10.918019135824581	1.0	n	16	2	n_16	18
48	29	ambiguous	illusion	6.8214530000414015	1.0	n	16	2	n_16	18
0	23	ambiguous	illusion	18.14619188015968	1.0	n	17	2	n_17	19
1	24	ambiguous	illusion	8.567357907670157	1.0	n	17	2	n_17	19
2	3	shape	illusion	9.527276978336886	1.0	n	17	2	n_17	19
3	35	shape	control	6.469809533225996	1.0	n	17	minus	n_17	19
4	36	shape	control	14.094722817437287	0.0	n	17	2	n_17	19
5	17	colour	illusion	7.1694775009000296	1.0	n	17	2	n_17	19
7	49	colour	control	7.5149305139075295	1.0	n	17	minus	n_17	19
8	18	colour	illusion	7.028653895402385	1.0	n	17	2	n_17	19
9	2	shape	illusion	17.503405418196053	1.0	n	17	minus	n_17	19
10	5	shape	illusion	5.8623447625286635	0.0	n	17	2	n_17	19
12	16	shape	illusion	8.962723151333194	1.0	n	17	minus	n_17	19
13	6	shape	illusion	16.583081830529412	1.0	n	17	minus	n_17	19
14	47	colour	control	6.408568735634617	1.0	n	17	minus	n_17	19
16	45	colour	control	6.878247789964008	0.0	n	17	2	n_17	19
17	48	colour	control	6.132380567234577	1.0	n	17	minus	n_17	19
18	1	shape	illusion	5.647730477601726	0.0	n	17	2	n_17	19
19	46	colour	control	8.369448163408379	1.0	n	17	minus	n_17	19
20	11	shape	illusion	11.816547884945974	0.0	n	17	minus	n_17	19
21	42	shape	control	5.9396275759445425	1.0	n	17	2	n_17	19
22	13	shape	illusion	5.901400905733682	0.0	n	17	minus	n_17	19
23	21	colour	illusion	6.2496470586320365	0.0	n	17	2	n_17	19
24	7	shape	illusion	7.407509911534362	1.0	n	17	2	n_17	19
26	22	colour	illusion	15.029410429882775	0.0	n	17	minus	n_17	19
27	37	shape	control	5.389758297971638	1.0	n	17	minus	n_17	19
28	10	shape	illusion	6.944019284943352	1.0	n	17	2	n_17	19
29	4	shape	illusion	8.888387459113801	1.0	n	17	minus	n_17	19
30	32	shape	control	5.3891500718054886	1.0	n	17	2	n_17	19
31	44	colour	control	4.804722525683246	1.0	n	17	2	n_17	19
32	15	shape	illusion	5.378847911852063	0.0	n	17	2	n_17	19
33	12	shape	illusion	13.987368670153954	0.0	n	17	2	n_17	19
34	33	shape	control	6.628305330346848	1.0	n	17	minus	n_17	19
35	34	shape	control	6.133173976186299	1.0	n	17	2	n_17	19
36	20	colour	illusion	4.386010879185052	0.0	n	17	minus	n_17	19
37	43	shape	control	5.8701155508151714	1.0	n	17	minus	n_17	19
38	41	shape	control	3.751182009147669	1.0	n	17	minus	n_17	19
39	31	shape	control	7.616451606107148	1.0	n	17	2	n_17	19
40	14	shape	illusion	8.746674814168728	0.0	n	17	2	n_17	19
41	19	colour	illusion	5.085712074402181	0.0	n	17	minus	n_17	19
42	39	shape	control	5.075044006236566	1.0	n	17	2	n_17	19
43	40	shape	control	6.1794510323234135	1.0	n	17	2	n_17	19
44	8	shape	illusion	6.176907099024903	1.0	n	17	minus	n_17	19
45	9	shape	illusion	14.956214604559136	0.0	n	17	minus	n_17	19
46	38	shape	control	10.324337718288009	0.0	n	17	minus	n_17	19
47	28	ambiguous	illusion	10.998076044073969	1.0	n	17	2	n_17	19
48	29	ambiguous	illusion	5.174325886040607	0.0	n	17	2	n_17	19
0	23	ambiguous	illusion	26.690241069896732	1.0	n	18	2	n_18	20
1	24	ambiguous	illusion	5.623775038173335	1.0	n	18	2	n_18	20
2	14	shape	illusion	10.922578603403965	0.0	n	18	2	n_18	20
3	2	shape	illusion	12.195046907567306	0.0	n	18	minus	n_18	20
4	33	shape	control	6.388420281444268	1.0	n	18	minus	n_18	20
5	19	colour	illusion	7.287882643551711	1.0	n	18	minus	n_18	20
6	17	colour	illusion	6.0215614353001	0.0	n	18	2	n_18	20
7	46	colour	control	4.998477611115959	1.0	n	18	minus	n_18	20
8	4	shape	illusion	5.640994200577552	1.0	n	18	minus	n_18	20
9	20	colour	illusion	4.443978763545601	0.0	n	18	minus	n_18	20
10	45	colour	control	4.879924565368128	1.0	n	18	2	n_18	20
11	9	shape	illusion	11.09868986219226	1.0	n	18	minus	n_18	20
12	48	colour	control	5.174537002516446	1.0	n	18	minus	n_18	20
13	44	colour	control	5.0883556903390845	1.0	n	18	2	n_18	20
14	32	shape	control	5.003116500636679	1.0	n	18	2	n_18	20
15	39	shape	control	6.5504467078790185	0.0	n	18	2	n_18	20
16	5	shape	illusion	4.521151763980015	0.0	n	18	2	n_18	20
18	47	colour	control	5.3089630898684845	1.0	n	18	minus	n_18	20
19	10	shape	illusion	6.3405576230470615	0.0	n	18	2	n_18	20
20	1	shape	illusion	5.284243416892423	0.0	n	18	2	n_18	20
22	22	colour	illusion	8.661764252996363	0.0	n	18	minus	n_18	20
23	35	shape	control	6.0209191711583125	0.0	n	18	minus	n_18	20
24	8	shape	illusion	4.532951999972283	0.0	n	18	minus	n_18	20
25	37	shape	control	4.296185882994904	1.0	n	18	minus	n_18	20
26	3	shape	illusion	5.277920052903936	0.0	n	18	2	n_18	20
27	11	shape	illusion	6.226409253140446	1.0	n	18	minus	n_18	20
28	49	colour	control	6.043197835184401	1.0	n	18	minus	n_18	20
29	36	shape	control	6.143062007464322	1.0	n	18	2	n_18	20
30	38	shape	control	7.906574677694152	0.0	n	18	minus	n_18	20
31	7	shape	illusion	5.0556999017753705	1.0	n	18	2	n_18	20
33	43	shape	control	4.661492759634712	1.0	n	18	minus	n_18	20
34	41	shape	control	3.1093510417231296	1.0	n	18	minus	n_18	20
35	12	shape	illusion	5.682514855147018	0.0	n	18	2	n_18	20
36	31	shape	control	5.910985026530397	1.0	n	18	2	n_18	20
37	40	shape	control	5.524112257236993	1.0	n	18	2	n_18	20
38	15	shape	illusion	4.141971981884127	0.0	n	18	2	n_18	20
39	6	shape	illusion	6.134676914796728	0.0	n	18	minus	n_18	20
40	18	colour	illusion	6.428550646884105	1.0	n	18	2	n_18	20
41	34	shape	control	5.821242288777285	1.0	n	18	2	n_18	20
42	16	shape	illusion	4.483158902225114	0.0	n	18	minus	n_18	20
43	42	shape	control	4.1229941908532055	1.0	n	18	2	n_18	20
44	13	shape	illusion	5.770611208543414	1.0	n	18	minus	n_18	20
46	21	colour	illusion	6.247548455485231	1.0	n	18	2	n_18	20
47	28	ambiguous	illusion	7.856960279306804	1.0	n	18	2	n_18	20
48	29	ambiguous	illusion	4.889154934371618	0.0	n	18	2	n_18	20
0	23	ambiguous	illusion	12.461306928510568	1.0	n	19	2	n_19	21
1	24	ambiguous	illusion	5.103366436613214	1.0	n	19	2	n_19	21
2	17	colour	illusion	6.0121932935471705	0.0	n	19	2	n_19	21
3	48	colour	control	6.105245819002447	1.0	n	19	minus	n_19	21
5	8	shape	illusion	5.219733758213807	1.0	n	19	minus	n_19	21
6	11	shape	illusion	6.886132848590022	1.0	n	19	minus	n_19	21
7	12	shape	illusion	5.926648167298482	1.0	n	19	2	n_19	21
8	1	shape	illusion	5.701608537372523	0.0	n	19	2	n_19	21
9	35	shape	control	5.922409223966497	1.0	n	19	minus	n_19	21
10	34	shape	control	4.419798025149248	1.0	n	19	2	n_19	21
11	46	colour	control	6.2428224449640775	0.0	n	19	minus	n_19	21
12	41	shape	control	3.619186800397984	1.0	n	19	minus	n_19	21
13	4	shape	illusion	6.819589420997545	0.0	n	19	minus	n_19	21
14	15	shape	illusion	5.257976231769135	0.0	n	19	2	n_19	21
15	38	shape	control	6.27408713397017	0.0	n	19	minus	n_19	21
16	10	shape	illusion	5.288314196428472	0.0	n	19	2	n_19	21
17	33	shape	control	7.0342908269285545	1.0	n	19	minus	n_19	21
18	16	shape	illusion	5.811686127743088	0.0	n	19	minus	n_19	21
20	40	shape	control	5.963535200126443	1.0	n	19	2	n_19	21
21	14	shape	illusion	6.2517436357093175	1.0	n	19	2	n_19	21
22	22	colour	illusion	6.924496886335874	1.0	n	19	minus	n_19	21
23	18	colour	illusion	6.874619098869517	1.0	n	19	2	n_19	21
25	32	shape	control	5.07820872733646	1.0	n	19	2	n_19	21
26	39	shape	control	5.2072057579280235	1.0	n	19	2	n_19	21
27	45	colour	control	5.535284816794956	0.0	n	19	2	n_19	21
28	20	colour	illusion	4.166620742416853	0.0	n	19	minus	n_19	21
29	9	shape	illusion	6.395434535252208	0.0	n	19	minus	n_19	21
30	2	shape	illusion	9.915559081818174	1.0	n	19	minus	n_19	21
31	49	colour	control	5.475337056979697	1.0	n	19	minus	n_19	21
32	7	shape	illusion	5.670824837347027	0.0	n	19	2	n_19	21
33	19	colour	illusion	4.574552886906531	0.0	n	19	minus	n_19	21
34	3	shape	illusion	4.665834222102603	1.0	n	19	2	n_19	21
35	42	shape	control	4.0887483426749895	1.0	n	19	2	n_19	21
36	21	colour	illusion	6.1329814995515335	1.0	n	19	2	n_19	21
37	5	shape	illusion	4.503974743824075	0.0	n	19	2	n_19	21
38	47	colour	control	5.070140106781763	1.0	n	19	minus	n_19	21
40	6	shape	illusion	6.389560553554474	0.0	n	19	minus	n_19	21
41	37	shape	control	4.604671630808298	1.0	n	19	minus	n_19	21
42	36	shape	control	5.131409269350115	0.0	n	19	2	n_19	21
43	44	colour	control	4.778958211093594	1.0	n	19	2	n_19	21
44	13	shape	illusion	5.538575964652409	0.0	n	19	minus	n_19	21
45	43	shape	control	4.9378535491887305	1.0	n	19	minus	n_19	21
46	31	shape	control	5.379273386519344	1.0	n	19	2	n_19	21
47	28	ambiguous	illusion	7.44966756246049	1.0	n	19	2	n_19	21
48	29	ambiguous	illusion	5.599545268883958	0.0	n	19	2	n_19	21
0	23	ambiguous	illusion	5.171195202914532	1.0	n	20	2	n_20	22
1	24	ambiguous	illusion	4.803425030553626	1.0	n	20	2	n_20	22
2	33	shape	control	6.288947140648816	1.0	n	20	minus	n_20	22
3	13	shape	illusion	14.23102828717674	0.0	n	20	minus	n_20	22
4	43	shape	control	4.936318598673097	1.0	n	20	minus	n_20	22
5	14	shape	illusion	12.047903585009408	0.0	n	20	2	n_20	22
6	20	colour	illusion	4.065608598963991	0.0	n	20	minus	n_20	22
7	10	shape	illusion	5.856681086881507	0.0	n	20	2	n_20	22
8	19	colour	illusion	5.115725462673254	0.0	n	20	minus	n_20	22
9	35	shape	control	6.0374186735562025	1.0	n	20	minus	n_20	22
10	11	shape	illusion	5.841943049607835	0.0	n	20	minus	n_20	22
11	22	colour	illusion	6.212656696241537	0.0	n	20	minus	n_20	22
12	18	colour	illusion	6.747093805412987	1.0	n	20	2	n_20	22
13	16	shape	illusion	5.0986598763611255	1.0	n	20	minus	n_20	22
14	37	shape	control	5.564674175551771	1.0	n	20	minus	n_20	22
15	44	colour	control	4.454419101462007	1.0	n	20	2	n_20	22
16	1	shape	illusion	5.990451132816816	0.0	n	20	2	n_20	22
17	46	colour	control	6.2260968331720505	1.0	n	20	minus	n_20	22
19	34	shape	control	4.325539582921009	1.0	n	20	2	n_20	22
20	48	colour	control	5.140882361522927	1.0	n	20	minus	n_20	22
21	2	shape	illusion	9.333391414002108	0.0	n	20	minus	n_20	22
22	40	shape	control	7.751934491488099	1.0	n	20	2	n_20	22
23	41	shape	control	3.906070591515345	1.0	n	20	minus	n_20	22
24	12	shape	illusion	9.136655574608994	1.0	n	20	2	n_20	22
25	38	shape	control	6.5432140437442285	0.0	n	20	minus	n_20	22
26	36	shape	control	5.036145491265415	1.0	n	20	2	n_20	22
27	3	shape	illusion	4.8064738604571176	0.0	n	20	2	n_20	22
28	7	shape	illusion	7.152792815718385	0.0	n	20	2	n_20	22
29	32	shape	control	4.7443545589812866	1.0	n	20	2	n_20	22
30	21	colour	illusion	6.626781320608642	1.0	n	20	2	n_20	22
32	39	shape	control	4.900194583748089	1.0	n	20	2	n_20	22
33	17	colour	illusion	5.420278203702765	0.0	n	20	2	n_20	22
35	49	colour	control	4.1922922630074035	1.0	n	20	minus	n_20	22
37	31	shape	control	5.278089027129682	1.0	n	20	2	n_20	22
38	42	shape	control	4.408339384528516	1.0	n	20	2	n_20	22
39	6	shape	illusion	5.626342068666418	1.0	n	20	minus	n_20	22
40	47	colour	control	5.268138998117138	1.0	n	20	minus	n_20	22
41	15	shape	illusion	4.518210720989373	0.0	n	20	2	n_20	22
42	4	shape	illusion	9.598082041241467	0.0	n	20	minus	n_20	22
43	9	shape	illusion	6.6854830474685505	0.0	n	20	minus	n_20	22
44	5	shape	illusion	4.437626224151245	0.0	n	20	2	n_20	22
45	8	shape	illusion	4.292080255057954	0.0	n	20	minus	n_20	22
46	45	colour	control	5.031337222307228	0.0	n	20	2	n_20	22
47	28	ambiguous	illusion	11.733898012506868	1.0	n	20	2	n_20	22
48	29	ambiguous	illusion	7.317578344068352	0.0	n	20	2	n_20	22
0	23	ambiguous	illusion	4.062156986374248	1.0	n	21	2	n_21	23
1	24	ambiguous	illusion	5.30945461441479	1.0	n	21	2	n_21	23
2	33	shape	control	6.2277367341048375	1.0	n	21	minus	n_21	23
3	18	colour	illusion	6.882540221537057	1.0	n	21	2	n_21	23
4	19	colour	illusion	5.822442532555216	0.0	n	21	minus	n_21	23
6	6	shape	illusion	7.126951510475919	1.0	n	21	minus	n_21	23
7	36	shape	control	10.467395673611463	1.0	n	21	2	n_21	23
8	12	shape	illusion	9.46166513766002	0.0	n	21	2	n_21	23
9	49	colour	control	4.836259923689795	1.0	n	21	minus	n_21	23
10	34	shape	control	4.9294712930222895	1.0	n	21	2	n_21	23
11	42	shape	control	5.467199955264731	1.0	n	21	2	n_21	23
12	1	shape	illusion	5.991689466705793	0.0	n	21	2	n_21	23
13	45	colour	control	7.403751146755893	1.0	n	21	2	n_21	23
15	4	shape	illusion	10.475988235828481	0.0	n	21	minus	n_21	23
16	2	shape	illusion	10.209272349171442	0.0	n	21	minus	n_21	23
17	35	shape	control	5.674637900798189	1.0	n	21	minus	n_21	23
19	40	shape	control	5.218498260823253	1.0	n	21	2	n_21	23
20	13	shape	illusion	5.782813822012031	0.0	n	21	minus	n_21	23
21	15	shape	illusion	4.4632795101133516	0.0	n	21	2	n_21	23
22	38	shape	control	6.42169321088295	0.0	n	21	minus	n_21	23
23	22	colour	illusion	7.401105099535925	1.0	n	21	minus	n_21	23
24	31	shape	control	5.297173794651826	1.0	n	21	2	n_21	23
25	39	shape	control	5.187043931679001	1.0	n	21	2	n_21	23
26	21	colour	illusion	6.208657639579543	0.0	n	21	2	n_21	23
27	44	colour	control	4.591061304012328	1.0	n	21	2	n_21	23
28	20	colour	illusion	5.73320833832986	0.0	n	21	minus	n_21	23
30	32	shape	control	5.29579849843867	1.0	n	21	2	n_21	23
31	9	shape	illusion	6.881879722768644	0.0	n	21	minus	n_21	23
32	37	shape	control	5.091340496435805	1.0	n	21	minus	n_21	23
33	3	shape	illusion	5.5514577167323305	0.0	n	21	2	n_21	23
34	7	shape	illusion	5.829545933434929	1.0	n	21	2	n_21	23
35	17	colour	illusion	5.883881074563759	0.0	n	21	2	n_21	23
36	48	colour	control	5.170078433216986	1.0	n	21	minus	n_21	23
37	8	shape	illusion	4.319587800142472	0.0	n	21	minus	n_21	23
38	41	shape	control	5.0028486542032615	0.0	n	21	minus	n_21	23
39	10	shape	illusion	6.911140223484836	1.0	n	21	2	n_21	23
40	47	colour	control	5.389631871214078	1.0	n	21	minus	n_21	23
41	14	shape	illusion	11.006139396846264	0.0	n	21	2	n_21	23
42	43	shape	control	4.8710686140693715	1.0	n	21	minus	n_21	23
43	46	colour	control	5.085308886504208	1.0	n	21	minus	n_21	23
44	5	shape	illusion	4.506485044363217	0.0	n	21	2	n_21	23
45	11	shape	illusion	6.1204810538147285	0.0	n	21	minus	n_21	23
46	16	shape	illusion	5.248106840335822	1.0	n	21	minus	n_21	23
47	28	ambiguous	illusion	10.171641343495141	1.0	n	21	2	n_21	23
48	29	ambiguous	illusion	4.531008188563646	0.0	n	21	2	n_21	23
0	23	ambiguous	illusion	3.4622842395438056	1.0	n	22	2	n_22	24
1	24	ambiguous	illusion	4.550849507727435	1.0	n	22	2	n_22	24
2	40	shape	control	8.91363057830722	1.0	n	22	2	n_22	24
3	16	shape	illusion	5.6747626771739315	0.0	n	22	minus	n_22	24
4	45	colour	control	5.204906637015939	0.0	n	22	2	n_22	24
5	4	shape	illusion	6.15710817674244	1.0	n	22	minus	n_22	24
6	41	shape	control	3.792401941615936	0.0	n	22	minus	n_22	24
7	42	shape	control	4.628276294947681	0.0	n	22	2	n_22	24
8	37	shape	control	4.782095767109695	1.0	n	22	minus	n_22	24
9	22	colour	illusion	6.80527149034333	0.0	n	22	minus	n_22	24
10	5	shape	illusion	4.630560882973897	0.0	n	22	2	n_22	24
11	14	shape	illusion	13.743734705760744	0.0	n	22	2	n_22	24
12	21	colour	illusion	6.688049999979738	0.0	n	22	2	n_22	24
13	49	colour	control	4.374952438183755	1.0	n	22	minus	n_22	24
14	46	colour	control	5.069279584868127	1.0	n	22	minus	n_22	24
15	19	colour	illusion	4.883035009143441	0.0	n	22	minus	n_22	24
16	15	shape	illusion	5.258624036151558	1.0	n	22	2	n_22	24
17	1	shape	illusion	6.014934106370674	0.0	n	22	2	n_22	24
18	8	shape	illusion	6.535527613002614	1.0	n	22	minus	n_22	24
19	9	shape	illusion	6.622669774916631	0.0	n	22	minus	n_22	24
20	38	shape	control	7.8741543721816925	0.0	n	22	minus	n_22	24
22	33	shape	control	5.359463595912531	1.0	n	22	minus	n_22	24
23	36	shape	control	6.613212925792142	0.0	n	22	2	n_22	24
24	3	shape	illusion	8.848652324035356	1.0	n	22	2	n_22	24
25	39	shape	control	5.105221122430521	1.0	n	22	2	n_22	24
26	13	shape	illusion	5.65627607289116	0.0	n	22	minus	n_22	24
27	2	shape	illusion	10.070743617599419	1.0	n	22	minus	n_22	24
28	10	shape	illusion	6.374759557038032	0.0	n	22	2	n_22	24
29	18	colour	illusion	6.7624174328898325	1.0	n	22	2	n_22	24
30	11	shape	illusion	7.656693036544766	0.0	n	22	minus	n_22	24
31	43	shape	control	5.731081945717051	1.0	n	22	minus	n_22	24
32	47	colour	control	5.287823648282028	1.0	n	22	minus	n_22	24
33	48	colour	control	5.566999656784902	1.0	n	22	minus	n_22	24
34	35	shape	control	6.157816893389737	1.0	n	22	minus	n_22	24
35	20	colour	illusion	4.185335684106121	0.0	n	22	minus	n_22	24
36	7	shape	illusion	6.269730505328425	0.0	n	22	2	n_22	24
38	17	colour	illusion	6.716700143972048	0.0	n	22	2	n_22	24
39	6	shape	illusion	6.050814862059723	0.0	n	22	minus	n_22	24
41	31	shape	control	6.190303589251016	1.0	n	22	2	n_22	24
43	12	shape	illusion	6.396096020773258	0.0	n	22	2	n_22	24
44	32	shape	control	5.039375308214858	1.0	n	22	2	n_22	24
45	34	shape	control	6.814961336650412	0.0	n	22	2	n_22	24
46	44	colour	control	4.9308363059044495	1.0	n	22	2	n_22	24
47	28	ambiguous	illusion	7.554323394416316	1.0	n	22	2	n_22	24
48	29	ambiguous	illusion	5.963323001765275	0.0	n	22	2	n_22	24
0	23	ambiguous	illusion	5.676885180204407	1.0	n	23	2	n_23	25
1	24	ambiguous	illusion	6.080506807365963	1.0	n	23	2	n_23	25
2	41	shape	control	4.195731815785621	0.0	n	23	minus	n_23	25
3	22	colour	illusion	13.128212473980966	0.0	n	23	minus	n_23	25
4	16	shape	illusion	7.636176317679201	1.0	n	23	minus	n_23	25
5	31	shape	control	5.317143608523112	1.0	n	23	2	n_23	25
6	14	shape	illusion	15.191425622639143	1.0	n	23	2	n_23	25
7	42	shape	control	5.494484450173331	1.0	n	23	2	n_23	25
9	3	shape	illusion	14.028184149627124	0.0	n	23	2	n_23	25
10	17	colour	illusion	15.866629576217749	0.0	n	23	2	n_23	25
11	46	colour	control	5.363275429817803	1.0	n	23	minus	n_23	25
12	2	shape	illusion	11.21370055850457	1.0	n	23	minus	n_23	25
13	7	shape	illusion	16.779254822333314	1.0	n	23	2	n_23	25
15	20	colour	illusion	4.359640673770628	0.0	n	23	minus	n_23	25
16	10	shape	illusion	12.585920243645887	0.0	n	23	2	n_23	25
17	8	shape	illusion	7.3163668161778315	1.0	n	23	minus	n_23	25
18	19	colour	illusion	4.688919180774974	0.0	n	23	minus	n_23	25
19	5	shape	illusion	4.4593355082433845	0.0	n	23	2	n_23	25
20	40	shape	control	9.607853585379416	0.0	n	23	2	n_23	25
22	13	shape	illusion	9.433335048732259	0.0	n	23	minus	n_23	25
23	47	colour	control	7.1522156411210736	1.0	n	23	minus	n_23	25
24	45	colour	control	5.006364672603013	1.0	n	23	2	n_23	25
25	4	shape	illusion	9.854235341741514	0.0	n	23	minus	n_23	25
26	18	colour	illusion	7.061373889160677	1.0	n	23	2	n_23	25
27	34	shape	control	6.429912218816752	1.0	n	23	2	n_23	25
28	48	colour	control	5.471234167840521	1.0	n	23	minus	n_23	25
29	21	colour	illusion	6.496186747850516	0.0	n	23	2	n_23	25
30	6	shape	illusion	6.3891490578189405	0.0	n	23	minus	n_23	25
31	12	shape	illusion	5.809810680671943	0.0	n	23	2	n_23	25
32	35	shape	control	7.799535707526957	0.0	n	23	minus	n_23	25
33	36	shape	control	5.770554910142892	1.0	n	23	2	n_23	25
34	44	colour	control	4.620524985199153	1.0	n	23	2	n_23	25
36	15	shape	illusion	4.579437248996328	0.0	n	23	2	n_23	25
37	39	shape	control	5.124351609361838	1.0	n	23	2	n_23	25
38	33	shape	control	5.394779890599239	1.0	n	23	minus	n_23	25
39	11	shape	illusion	5.832428831517973	0.0	n	23	minus	n_23	25
40	1	shape	illusion	5.596710647079816	0.0	n	23	2	n_23	25
41	49	colour	control	8.245333471646518	1.0	n	23	minus	n_23	25
42	43	shape	control	5.101782084015213	0.0	n	23	minus	n_23	25
43	38	shape	control	16.752873868292227	0.0	n	23	minus	n_23	25
44	32	shape	control	5.708112475642338	1.0	n	23	2	n_23	25
45	37	shape	control	4.2902695108805355	1.0	n	23	minus	n_23	25
46	9	shape	illusion	9.906502890584306	1.0	n	23	minus	n_23	25
47	28	ambiguous	illusion	11.135023690749223	1.0	n	23	2	n_23	25
48	29	ambiguous	illusion	6.534897102366812	0.0	n	23	2	n_23	25
0	23	ambiguous	illusion	4.146419886856165	1.0	n	24	2	n_24	26
1	24	ambiguous	illusion	5.387600335674507	1.0	n	24	2	n_24	26
2	40	shape	control	7.693840081268719	1.0	n	24	2	n_24	26
3	2	shape	illusion	10.679912117513595	1.0	n	24	minus	n_24	26
4	7	shape	illusion	6.387367338495097	1.0	n	24	2	n_24	26
5	47	colour	control	5.732742911717651	1.0	n	24	minus	n_24	26
6	3	shape	illusion	6.30983479081624	1.0	n	24	2	n_24	26
7	19	colour	illusion	8.476678197665024	0.0	n	24	minus	n_24	26
8	38	shape	control	13.919013826252923	1.0	n	24	minus	n_24	26
10	14	shape	illusion	12.24158444567729	1.0	n	24	2	n_24	26
11	36	shape	control	7.196832778125099	1.0	n	24	2	n_24	26
12	21	colour	illusion	14.854492246460724	1.0	n	24	2	n_24	26
13	48	colour	control	6.419291194204562	1.0	n	24	minus	n_24	26
14	10	shape	illusion	9.882936137299113	1.0	n	24	2	n_24	26
15	22	colour	illusion	13.553589149381876	0.0	n	24	minus	n_24	26
16	5	shape	illusion	6.632479158910428	0.0	n	24	2	n_24	26
17	49	colour	control	4.646619454008032	1.0	n	24	minus	n_24	26
19	32	shape	control	6.0441859909115	1.0	n	24	2	n_24	26
20	43	shape	control	5.546515760132023	1.0	n	24	minus	n_24	26
21	1	shape	illusion	6.771175290468818	0.0	n	24	2	n_24	26
22	44	colour	control	5.0422186842661185	1.0	n	24	2	n_24	26
23	8	shape	illusion	15.565055042039607	0.0	n	24	minus	n_24	26
24	37	shape	control	5.0224722743478205	1.0	n	24	minus	n_24	26
25	31	shape	control	5.575018001563875	1.0	n	24	2	n_24	26
28	39	shape	control	8.611873293295503	1.0	n	24	2	n_24	26
29	35	shape	control	7.478878096277184	1.0	n	24	minus	n_24	26
30	16	shape	illusion	5.772838282529848	0.0	n	24	minus	n_24	26
31	34	shape	control	6.558603653964383	1.0	n	24	2	n_24	26
32	12	shape	illusion	11.412764841817989	0.0	n	24	2	n_24	26
33	13	shape	illusion	11.060148121374366	0.0	n	24	minus	n_24	26
34	11	shape	illusion	11.20541031614266	1.0	n	24	minus	n_24	26
35	42	shape	control	5.351167275362968	1.0	n	24	2	n_24	26
36	4	shape	illusion	12.914518398873042	0.0	n	24	minus	n_24	26
37	45	colour	control	6.5324184175551645	0.0	n	24	2	n_24	26
38	41	shape	control	4.568462068666122	1.0	n	24	minus	n_24	26
39	9	shape	illusion	15.312489743057087	1.0	n	24	minus	n_24	26
40	17	colour	illusion	10.13619556527192	0.0	n	24	2	n_24	26
41	18	colour	illusion	8.344732095789366	1.0	n	24	2	n_24	26
42	46	colour	control	7.681941016460768	1.0	n	24	minus	n_24	26
43	20	colour	illusion	6.274347496455448	1.0	n	24	minus	n_24	26
44	15	shape	illusion	4.7534298198334	1.0	n	24	2	n_24	26
45	33	shape	control	5.966247825530446	0.0	n	24	minus	n_24	26
46	6	shape	illusion	6.478231377142946	1.0	n	24	minus	n_24	26
47	28	ambiguous	illusion	12.022666776345432	1.0	n	24	2	n_24	26
48	29	ambiguous	illusion	9.841213838331896	0.0	n	24	2	n_24	26
0	23	ambiguous	illusion	4.1729046850887235	1.0	y	3	2	y_3	27
1	24	ambiguous	illusion	6.128470478971393	1.0	y	3	2	y_3	27
2	31	shape	control	7.4876712573004625	1.0	y	3	2	y_3	27
3	8	shape	illusion	5.392166301774523	0.0	y	3	minus	y_3	27
4	17	colour	illusion	5.843373445155522	0.0	y	3	2	y_3	27
5	33	shape	control	7.217143579576259	0.0	y	3	minus	y_3	27
6	7	shape	illusion	6.516614657854007	1.0	y	3	2	y_3	27
7	39	shape	control	6.0687059307874724	1.0	y	3	2	y_3	27
9	15	shape	illusion	6.321786039756263	0.0	y	3	2	y_3	27
10	46	colour	control	5.102148792612752	1.0	y	3	minus	y_3	27
11	48	colour	control	5.284186525037511	1.0	y	3	minus	y_3	27
12	32	shape	control	5.196319388812299	1.0	y	3	2	y_3	27
13	10	shape	illusion	5.660221382895543	0.0	y	3	2	y_3	27
14	13	shape	illusion	8.871399853556795	0.0	y	3	minus	y_3	27
15	14	shape	illusion	12.371757452131533	1.0	y	3	2	y_3	27
17	41	shape	control	4.689552570232081	1.0	y	3	minus	y_3	27
18	22	colour	illusion	6.806091615741933	0.0	y	3	minus	y_3	27
19	6	shape	illusion	5.715012373113495	0.0	y	3	minus	y_3	27
21	11	shape	illusion	5.948415443232988	0.0	y	3	minus	y_3	27
22	20	colour	illusion	6.221080608189367	1.0	y	3	minus	y_3	27
23	21	colour	illusion	7.129519164649537	1.0	y	3	2	y_3	27
24	5	shape	illusion	4.6895631057141145	0.0	y	3	2	y_3	27
25	35	shape	control	5.433122583170189	0.0	y	3	minus	y_3	27
26	36	shape	control	6.2294003973502186	1.0	y	3	2	y_3	27
27	1	shape	illusion	5.278700780557301	0.0	y	3	2	y_3	27
28	9	shape	illusion	12.278894471343849	0.0	y	3	minus	y_3	27
29	2	shape	illusion	12.108764264940875	0.0	y	3	minus	y_3	27
30	43	shape	control	5.759993208665946	0.0	y	3	minus	y_3	27
31	45	colour	control	5.524327441162313	1.0	y	3	2	y_3	27
32	19	colour	illusion	5.5565044242948725	0.0	y	3	minus	y_3	27
34	38	shape	control	15.578446997002175	0.0	y	3	minus	y_3	27
35	44	colour	control	5.038206520571293	1.0	y	3	2	y_3	27
36	40	shape	control	8.995220132819668	1.0	y	3	2	y_3	27
37	4	shape	illusion	10.662297278076947	1.0	y	3	minus	y_3	27
38	37	shape	control	6.0578381758050455	0.0	y	3	minus	y_3	27
39	49	colour	control	8.234258875434534	1.0	y	3	minus	y_3	27
40	12	shape	illusion	6.971520565868559	0.0	y	3	2	y_3	27
41	47	colour	control	5.298000973316448	1.0	y	3	minus	y_3	27
42	3	shape	illusion	5.152777051775047	0.0	y	3	2	y_3	27
43	16	shape	illusion	6.455771033178281	0.0	y	3	minus	y_3	27
44	18	colour	illusion	7.972876806581553	1.0	y	3	2	y_3	27
45	42	shape	control	5.226441142515796	1.0	y	3	2	y_3	27
46	34	shape	control	5.979604927525543	1.0	y	3	2	y_3	27
47	28	ambiguous	illusion	8.625819792199763	1.0	y	3	2	y_3	27
48	29	ambiguous	illusion	15.859850939136775	0.0	y	3	2	y_3	27
0	23	ambiguous	illusion	5.588700047126622	1.0	n	25	2	n_25	28
1	24	ambiguous	illusion	4.246602003118824	1.0	n	25	2	n_25	28
2	33	shape	control	9.870723556648953	1.0	n	25	minus	n_25	28
3	47	colour	control	6.556051398563795	0.0	n	25	minus	n_25	28
4	20	colour	illusion	6.3826418207590905	1.0	n	25	minus	n_25	28
5	12	shape	illusion	5.7507171219021975	1.0	n	25	2	n_25	28
6	5	shape	illusion	6.591911343108222	0.0	n	25	2	n_25	28
7	35	shape	control	6.8725226928199845	0.0	n	25	minus	n_25	28
8	22	colour	illusion	8.509391369250809	0.0	n	25	minus	n_25	28
9	18	colour	illusion	7.117118091813609	1.0	n	25	2	n_25	28
10	7	shape	illusion	5.588281464317332	0.0	n	25	2	n_25	28
11	2	shape	illusion	11.305956477923242	1.0	n	25	minus	n_25	28
12	39	shape	control	6.678784091907801	1.0	n	25	2	n_25	28
13	17	colour	illusion	6.001986748795389	0.0	n	25	2	n_25	28
14	37	shape	control	6.176825505268424	1.0	n	25	minus	n_25	28
15	15	shape	illusion	4.780109496075966	1.0	n	25	2	n_25	28
16	4	shape	illusion	7.2373862927706805	1.0	n	25	minus	n_25	28
18	34	shape	control	5.2816231612050615	1.0	n	25	2	n_25	28
19	11	shape	illusion	6.53645418625274	1.0	n	25	minus	n_25	28
20	45	colour	control	6.6675046427026246	0.0	n	25	2	n_25	28
21	14	shape	illusion	8.076139929031342	0.0	n	25	2	n_25	28
22	31	shape	control	7.912083022840306	0.0	n	25	2	n_25	28
23	8	shape	illusion	5.700617662896548	0.0	n	25	minus	n_25	28
24	32	shape	control	5.57306701255402	1.0	n	25	2	n_25	28
25	36	shape	control	5.9935705194511675	0.0	n	25	2	n_25	28
26	46	colour	control	6.361252360858997	1.0	n	25	minus	n_25	28
27	44	colour	control	5.665757373521045	1.0	n	25	2	n_25	28
29	21	colour	illusion	6.95745812855057	0.0	n	25	2	n_25	28
30	40	shape	control	6.907111490929309	0.0	n	25	2	n_25	28
31	41	shape	control	6.648729197995635	1.0	n	25	minus	n_25	28
32	6	shape	illusion	6.1641237659805475	1.0	n	25	minus	n_25	28
33	48	colour	control	7.339091784715492	0.0	n	25	minus	n_25	28
34	10	shape	illusion	7.427976000171839	0.0	n	25	2	n_25	28
35	38	shape	control	7.504164149293501	1.0	n	25	minus	n_25	28
36	43	shape	control	6.464052327308309	0.0	n	25	minus	n_25	28
37	49	colour	control	6.335786074605494	1.0	n	25	minus	n_25	28
38	3	shape	illusion	6.849184979157144	1.0	n	25	2	n_25	28
39	42	shape	control	5.653622524212551	1.0	n	25	2	n_25	28
40	9	shape	illusion	7.973296199810647	1.0	n	25	minus	n_25	28
42	16	shape	illusion	5.694214926266795	1.0	n	25	minus	n_25	28
44	19	colour	illusion	6.836984080482581	1.0	n	25	minus	n_25	28
45	13	shape	illusion	7.8381689170037125	0.0	n	25	minus	n_25	28
46	1	shape	illusion	6.677494710986139	1.0	n	25	2	n_25	28
47	28	ambiguous	illusion	9.28974804394602	1.0	n	25	2	n_25	28
48	29	ambiguous	illusion	5.068355423401954	1.0	n	25	2	n_25	28
0	23	ambiguous	illusion	4.123736400615599	1.0	n	26	2	n_26	29
1	24	ambiguous	illusion	4.7017040331847975	1.0	n	26	2	n_26	29
2	44	colour	control	4.333081292184944	1.0	n	26	2	n_26	29
3	13	shape	illusion	5.449098831330048	0.0	n	26	minus	n_26	29
4	49	colour	control	4.973102914234914	1.0	n	26	minus	n_26	29
5	41	shape	control	6.444843306991969	1.0	n	26	minus	n_26	29
6	42	shape	control	8.42228765026448	1.0	n	26	2	n_26	29
7	32	shape	control	4.17710023822292	1.0	n	26	2	n_26	29
8	14	shape	illusion	16.479094159250966	0.0	n	26	2	n_26	29
9	33	shape	control	6.171231974698457	1.0	n	26	minus	n_26	29
11	45	colour	control	10.324785815675568	0.0	n	26	2	n_26	29
12	8	shape	illusion	5.9404708793190375	1.0	n	26	minus	n_26	29
13	10	shape	illusion	14.129075458768055	1.0	n	26	2	n_26	29
14	31	shape	control	4.894673949114804	1.0	n	26	2	n_26	29
15	37	shape	control	4.767341707418382	1.0	n	26	minus	n_26	29
17	6	shape	illusion	6.132609707801747	1.0	n	26	minus	n_26	29
19	39	shape	control	6.0775691076960365	1.0	n	26	2	n_26	29
20	17	colour	illusion	5.865863052509668	0.0	n	26	2	n_26	29
21	48	colour	control	6.527443917806523	1.0	n	26	minus	n_26	29
22	21	colour	illusion	6.340665623654786	0.0	n	26	2	n_26	29
23	15	shape	illusion	4.405141153172735	0.0	n	26	2	n_26	29
24	18	colour	illusion	6.333575244210807	1.0	n	26	2	n_26	29
25	46	colour	control	5.299110440621007	1.0	n	26	minus	n_26	29
26	43	shape	control	5.918593140348094	1.0	n	26	minus	n_26	29
27	1	shape	illusion	5.18578025982788	0.0	n	26	2	n_26	29
28	36	shape	control	5.68581125845958	1.0	n	26	2	n_26	29
29	9	shape	illusion	6.873653636303061	1.0	n	26	minus	n_26	29
30	19	colour	illusion	4.528068752933905	0.0	n	26	minus	n_26	29
31	4	shape	illusion	5.812296609477925	1.0	n	26	minus	n_26	29
32	22	colour	illusion	6.65781686171249	0.0	n	26	minus	n_26	29
33	47	colour	control	4.881027258128596	1.0	n	26	minus	n_26	29
34	40	shape	control	5.94905365032173	1.0	n	26	2	n_26	29
35	3	shape	illusion	5.234587906645174	1.0	n	26	2	n_26	29
36	5	shape	illusion	5.57500067872752	0.0	n	26	2	n_26	29
38	16	shape	illusion	5.435868291886437	0.0	n	26	minus	n_26	29
39	38	shape	control	7.040395874792012	1.0	n	26	minus	n_26	29
40	20	colour	illusion	3.771331818654289	0.0	n	26	minus	n_26	29
41	2	shape	illusion	13.085965076497814	0.0	n	26	minus	n_26	29
42	12	shape	illusion	5.811292091784708	1.0	n	26	2	n_26	29
43	7	shape	illusion	5.001277224600926	1.0	n	26	2	n_26	29
44	11	shape	illusion	8.840336795048643	0.0	n	26	minus	n_26	29
45	35	shape	control	6.320917672906943	0.0	n	26	minus	n_26	29
46	34	shape	control	4.260029880246293	1.0	n	26	2	n_26	29
47	28	ambiguous	illusion	7.407603619503789	1.0	n	26	2	n_26	29
48	29	ambiguous	illusion	4.735138385582104	1.0	n	26	2	n_26	29
0	23	ambiguous	illusion	23.64216405330717	1.0	y	4	2	y_4	30
1	24	ambiguous	illusion	4.968454902927078	1.0	y	4	2	y_4	30
2	49	colour	control	5.315842812638948	1.0	y	4	minus	y_4	30
3	19	colour	illusion	6.949275315337218	0.0	y	4	minus	y_4	30
4	31	shape	control	6.5599121009863675	1.0	y	4	2	y_4	30
5	4	shape	illusion	6.201644601414955	1.0	y	4	minus	y_4	30
6	47	colour	control	5.451325698021718	1.0	y	4	minus	y_4	30
7	6	shape	illusion	6.483350163220166	0.0	y	4	minus	y_4	30
8	9	shape	illusion	10.486948463266344	1.0	y	4	minus	y_4	30
9	15	shape	illusion	4.219836277347895	0.0	y	4	2	y_4	30
10	16	shape	illusion	5.191763863990673	0.0	y	4	minus	y_4	30
11	38	shape	control	6.191132135412773	1.0	y	4	minus	y_4	30
12	35	shape	control	7.42916211476313	0.0	y	4	minus	y_4	30
13	18	colour	illusion	7.2166537268340125	1.0	y	4	2	y_4	30
14	32	shape	control	4.757567776088763	1.0	y	4	2	y_4	30
15	39	shape	control	4.997070708216597	1.0	y	4	2	y_4	30
16	46	colour	control	12.468447203861615	1.0	y	4	minus	y_4	30
17	36	shape	control	6.192017527934696	0.0	y	4	2	y_4	30
18	10	shape	illusion	5.067639936592059	0.0	y	4	2	y_4	30
20	14	shape	illusion	10.578448614006447	0.0	y	4	2	y_4	30
21	2	shape	illusion	9.910813621024317	1.0	y	4	minus	y_4	30
22	13	shape	illusion	13.254292836790226	1.0	y	4	minus	y_4	30
23	33	shape	control	5.366089750031279	1.0	y	4	minus	y_4	30
24	45	colour	control	5.357774759383574	1.0	y	4	2	y_4	30
25	43	shape	control	4.620054363506824	1.0	y	4	minus	y_4	30
26	41	shape	control	3.8196797837135823	0.0	y	4	minus	y_4	30
27	22	colour	illusion	6.743734986822346	1.0	y	4	minus	y_4	30
28	1	shape	illusion	5.2075724765700215	0.0	y	4	2	y_4	30
29	37	shape	control	4.331841470569998	1.0	y	4	minus	y_4	30
30	34	shape	control	4.57415577721622	1.0	y	4	2	y_4	30
31	7	shape	illusion	5.730355631987551	0.0	y	4	2	y_4	30
33	5	shape	illusion	4.640428521876856	0.0	y	4	2	y_4	30
34	17	colour	illusion	5.267510511250293	0.0	y	4	2	y_4	30
35	3	shape	illusion	4.523327357778727	0.0	y	4	2	y_4	30
36	21	colour	illusion	8.046015287913178	0.0	y	4	2	y_4	30
38	12	shape	illusion	6.361259194304694	0.0	y	4	2	y_4	30
39	40	shape	control	5.700899412926447	1.0	y	4	2	y_4	30
41	42	shape	control	4.663631478965726	1.0	y	4	2	y_4	30
42	48	colour	control	5.026386318031656	1.0	y	4	minus	y_4	30
43	8	shape	illusion	5.6979381092387476	0.0	y	4	minus	y_4	30
44	20	colour	illusion	6.022274611886133	0.0	y	4	minus	y_4	30
45	44	colour	control	4.598833307940367	1.0	y	4	2	y_4	30
46	11	shape	illusion	9.501224556614943	0.0	y	4	minus	y_4	30
47	28	ambiguous	illusion	7.127480719919731	1.0	y	4	2	y_4	30
48	29	ambiguous	illusion	5.722285795792232	0.0	y	4	2	y_4	30
0	23	ambiguous	illusion	14.088162081754492	1.0	y	5	2	y_5	31
1	24	ambiguous	illusion	6.251727319548081	1.0	y	5	2	y_5	31
2	1	shape	illusion	5.851332804665617	0.0	y	5	2	y_5	31
3	36	shape	control	8.873645020080401	0.0	y	5	2	y_5	31
4	12	shape	illusion	6.975530433282073	1.0	y	5	2	y_5	31
5	33	shape	control	5.669156157143334	1.0	y	5	minus	y_5	31
6	45	colour	control	9.883488441921145	0.0	y	5	2	y_5	31
8	32	shape	control	8.002117235268088	1.0	y	5	2	y_5	31
9	39	shape	control	6.802075174210585	1.0	y	5	2	y_5	31
10	41	shape	control	6.255979214220133	1.0	y	5	minus	y_5	31
11	11	shape	illusion	14.305367728309648	1.0	y	5	minus	y_5	31
12	3	shape	illusion	5.10226712336771	0.0	y	5	2	y_5	31
13	9	shape	illusion	7.134763949541592	0.0	y	5	minus	y_5	31
14	48	colour	control	7.377921835321104	1.0	y	5	minus	y_5	31
15	35	shape	control	8.93419875915879	1.0	y	5	minus	y_5	31
16	6	shape	illusion	6.01885007988767	0.0	y	5	minus	y_5	31
17	43	shape	control	4.5979254741296245	0.0	y	5	minus	y_5	31
18	13	shape	illusion	13.512607984063836	0.0	y	5	minus	y_5	31
19	20	colour	illusion	9.514287995053564	0.0	y	5	minus	y_5	31
20	19	colour	illusion	4.917310718154114	0.0	y	5	minus	y_5	31
21	8	shape	illusion	8.901472582714632	1.0	y	5	minus	y_5	31
22	47	colour	control	7.424594210080613	1.0	y	5	minus	y_5	31
23	5	shape	illusion	5.169940851132196	0.0	y	5	2	y_5	31
25	49	colour	control	8.14666544562624	1.0	y	5	minus	y_5	31
26	31	shape	control	11.086335789055738	1.0	y	5	2	y_5	31
27	17	colour	illusion	6.289534455420835	0.0	y	5	2	y_5	31
28	22	colour	illusion	7.509478527992543	1.0	y	5	minus	y_5	31
30	16	shape	illusion	9.857817825378788	1.0	y	5	minus	y_5	31
31	46	colour	control	12.454951514298955	1.0	y	5	minus	y_5	31
32	21	colour	illusion	7.2043908015139095	0.0	y	5	2	y_5	31
33	10	shape	illusion	6.875867610595377	0.0	y	5	2	y_5	31
34	44	colour	control	5.187989825924888	1.0	y	5	2	y_5	31
35	14	shape	illusion	14.759191941458086	0.0	y	5	2	y_5	31
36	2	shape	illusion	9.574743267495249	0.0	y	5	minus	y_5	31
37	40	shape	control	6.836317250585124	1.0	y	5	2	y_5	31
38	7	shape	illusion	8.060513217828884	1.0	y	5	2	y_5	31
39	42	shape	control	6.981513800928951	1.0	y	5	2	y_5	31
40	34	shape	control	9.317229513570963	0.0	y	5	2	y_5	31
41	15	shape	illusion	5.137652709392569	0.0	y	5	2	y_5	31
42	37	shape	control	6.214859061016796	1.0	y	5	minus	y_5	31
43	4	shape	illusion	13.60282327751338	0.0	y	5	minus	y_5	31
44	38	shape	control	12.475189041757405	0.0	y	5	minus	y_5	31
45	18	colour	illusion	9.982201446528054	1.0	y	5	2	y_5	31
47	28	ambiguous	illusion	8.341929646197059	1.0	y	5	2	y_5	31
48	29	ambiguous	illusion	12.246841672538721	0.0	y	5	2	y_5	31
0	23	ambiguous	illusion	3.7797662004977615	1.0	y	6	2	y_6	32
1	24	ambiguous	illusion	7.038856636225319	1.0	y	6	2	y_6	32
2	47	colour	control	5.416599772837799	1.0	y	6	minus	y_6	32
3	1	shape	illusion	5.638249789997643	0.0	y	6	2	y_6	32
4	46	colour	control	5.81757738849592	1.0	y	6	minus	y_6	32
5	15	shape	illusion	5.204427675849729	0.0	y	6	2	y_6	32
6	13	shape	illusion	10.049855318879056	1.0	y	6	minus	y_6	32
7	35	shape	control	6.930126373619713	1.0	y	6	minus	y_6	32
8	34	shape	control	8.066347062069326	0.0	y	6	2	y_6	32
9	17	colour	illusion	7.439293293205992	0.0	y	6	2	y_6	32
10	12	shape	illusion	7.75300718320068	0.0	y	6	2	y_6	32
11	16	shape	illusion	6.129069093185536	1.0	y	6	minus	y_6	32
12	2	shape	illusion	9.922477582633293	0.0	y	6	minus	y_6	32
13	39	shape	control	6.6197996548398805	0.0	y	6	2	y_6	32
15	48	colour	control	6.946268013214649	1.0	y	6	minus	y_6	32
16	3	shape	illusion	7.311211702861327	1.0	y	6	2	y_6	32
17	4	shape	illusion	7.125746755969884	1.0	y	6	minus	y_6	32
18	5	shape	illusion	5.074307461462013	0.0	y	6	2	y_6	32
20	11	shape	illusion	11.293584554272456	1.0	y	6	minus	y_6	32
21	22	colour	illusion	7.73238713515093	0.0	y	6	minus	y_6	32
22	21	colour	illusion	8.393621388087922	0.0	y	6	2	y_6	32
23	14	shape	illusion	12.672537655384073	1.0	y	6	2	y_6	32
24	38	shape	control	7.564195586344796	1.0	y	6	minus	y_6	32
25	9	shape	illusion	8.468998205313255	1.0	y	6	minus	y_6	32
26	31	shape	control	5.402377624814108	1.0	y	6	2	y_6	32
27	41	shape	control	4.898920149231344	1.0	y	6	minus	y_6	32
28	20	colour	illusion	5.799783697571911	0.0	y	6	minus	y_6	32
29	42	shape	control	6.278709608925055	1.0	y	6	2	y_6	32
30	19	colour	illusion	5.234382604065104	0.0	y	6	minus	y_6	32
31	44	colour	control	5.20659110534325	0.0	y	6	2	y_6	32
32	49	colour	control	6.675547978980831	1.0	y	6	minus	y_6	32
33	37	shape	control	7.032983486375088	1.0	y	6	minus	y_6	32
34	18	colour	illusion	7.604204241682964	1.0	y	6	2	y_6	32
35	8	shape	illusion	7.446644253011982	0.0	y	6	minus	y_6	32
36	43	shape	control	5.339539702923503	0.0	y	6	minus	y_6	32
37	36	shape	control	6.697261290335518	0.0	y	6	2	y_6	32
38	33	shape	control	6.40074097156139	1.0	y	6	minus	y_6	32
39	45	colour	control	5.332787241966797	1.0	y	6	2	y_6	32
40	7	shape	illusion	6.740554192916534	1.0	y	6	2	y_6	32
41	10	shape	illusion	6.326214290143981	0.0	y	6	2	y_6	32
42	32	shape	control	6.118728070407088	1.0	y	6	2	y_6	32
44	40	shape	control	7.155575257886086	1.0	y	6	2	y_6	32
45	6	shape	illusion	6.487798444064537	1.0	y	6	minus	y_6	32
47	28	ambiguous	illusion	8.998032288141985	1.0	y	6	2	y_6	32
48	29	ambiguous	illusion	7.83171687317008	0.0	y	6	2	y_6	32
0	23	ambiguous	illusion	7.0811494743793455	1.0	n	27	2	n_27	33
1	24	ambiguous	illusion	5.529060016426229	1.0	n	27	2	n_27	33
2	49	colour	control	5.368815089790587	1.0	n	27	minus	n_27	33
3	6	shape	illusion	18.342947539975285	1.0	n	27	minus	n_27	33
4	39	shape	control	5.0535269492647785	1.0	n	27	2	n_27	33
5	18	colour	illusion	7.441297879398918	1.0	n	27	2	n_27	33
6	15	shape	illusion	5.542830757734919	0.0	n	27	2	n_27	33
7	13	shape	illusion	9.193567981081287	0.0	n	27	minus	n_27	33
8	46	colour	control	5.268837416995666	1.0	n	27	minus	n_27	33
9	32	shape	control	4.687310892393724	1.0	n	27	2	n_27	33
10	20	colour	illusion	4.142826057268394	0.0	n	27	minus	n_27	33
11	34	shape	control	8.153120885825048	1.0	n	27	2	n_27	33
14	21	colour	illusion	14.757366053971054	0.0	n	27	2	n_27	33
15	8	shape	illusion	17.58934712568589	1.0	n	27	minus	n_27	33
16	14	shape	illusion	16.686323389552854	1.0	n	27	2	n_27	33
17	4	shape	illusion	6.070490765006981	0.0	n	27	minus	n_27	33
18	16	shape	illusion	20.342387941527704	0.0	n	27	minus	n_27	33
19	22	colour	illusion	7.749481429313164	1.0	n	27	minus	n_27	33
20	48	colour	control	10.499835686336157	1.0	n	27	minus	n_27	33
22	33	shape	control	7.555261056124436	1.0	n	27	minus	n_27	33
23	47	colour	control	17.96803805431773	1.0	n	27	minus	n_27	33
24	11	shape	illusion	14.068358536875165	0.0	n	27	minus	n_27	33
25	35	shape	control	6.472214376855844	1.0	n	27	minus	n_27	33
27	10	shape	illusion	18.81643185278153	0.0	n	27	2	n_27	33
28	3	shape	illusion	14.309513862521275	1.0	n	27	2	n_27	33
29	31	shape	control	5.0961800213226525	1.0	n	27	2	n_27	33
30	12	shape	illusion	7.529549107905041	0.0	n	27	2	n_27	33
31	5	shape	illusion	5.789720245349599	0.0	n	27	2	n_27	33
32	45	colour	control	6.331040370914708	0.0	n	27	2	n_27	33
33	2	shape	illusion	20.80094868348533	1.0	n	27	minus	n_27	33
34	17	colour	illusion	11.485395533993142	0.0	n	27	2	n_27	33
35	19	colour	illusion	5.373688580424641	0.0	n	27	minus	n_27	33
36	7	shape	illusion	12.751962140187972	1.0	n	27	2	n_27	33
37	9	shape	illusion	25.82856918253674	0.0	n	27	minus	n_27	33
38	40	shape	control	7.433396235817781	1.0	n	27	2	n_27	33
39	41	shape	control	3.8368954888101134	1.0	n	27	minus	n_27	33
40	1	shape	illusion	10.16690864606062	0.0	n	27	2	n_27	33
41	43	shape	control	9.088837165763833	1.0	n	27	minus	n_27	33
42	38	shape	control	18.489707805321814	1.0	n	27	minus	n_27	33
43	44	colour	control	6.196699058000378	1.0	n	27	2	n_27	33
44	42	shape	control	8.535814503447911	1.0	n	27	2	n_27	33
45	36	shape	control	8.742532845510139	1.0	n	27	2	n_27	33
46	37	shape	control	4.313796553342399	1.0	n	27	minus	n_27	33
47	28	ambiguous	illusion	17.404331964658926	1.0	n	27	2	n_27	33
48	29	ambiguous	illusion	13.597954649430905	0.0	n	27	2	n_27	33
0	23	ambiguous	illusion	5.838063311210135	1.0	y	7	2	y_7	34
1	24	ambiguous	illusion	4.9053666747577145	1.0	y	7	2	y_7	34
2	14	shape	illusion	13.417959260746102	0.0	y	7	2	y_7	34
3	36	shape	control	4.729804715943828	1.0	y	7	2	y_7	34
4	22	colour	illusion	16.28900524790697	0.0	y	7	minus	y_7	34
5	2	shape	illusion	15.981347663808265	0.0	y	7	minus	y_7	34
6	38	shape	control	12.089403247616248	0.0	y	7	minus	y_7	34
7	43	shape	control	18.315187647825947	1.0	y	7	minus	y_7	34
8	12	shape	illusion	14.397380139158486	1.0	y	7	2	y_7	34
9	1	shape	illusion	5.602424548421369	0.0	y	7	2	y_7	34
10	32	shape	control	4.688438598758693	1.0	y	7	2	y_7	34
11	18	colour	illusion	7.769862807207573	1.0	y	7	2	y_7	34
12	44	colour	control	4.760374351508291	1.0	y	7	2	y_7	34
13	40	shape	control	9.518103881084244	0.0	y	7	2	y_7	34
14	31	shape	control	5.2075376817219885	1.0	y	7	2	y_7	34
15	42	shape	control	9.569618139905288	1.0	y	7	2	y_7	34
16	8	shape	illusion	5.394990195884019	1.0	y	7	minus	y_7	34
17	7	shape	illusion	11.53571076904882	0.0	y	7	2	y_7	34
21	3	shape	illusion	5.488264438430632	1.0	y	7	2	y_7	34
22	10	shape	illusion	6.674715672525053	0.0	y	7	2	y_7	34
23	46	colour	control	9.749259372869346	1.0	y	7	minus	y_7	34
24	6	shape	illusion	5.836765010387353	1.0	y	7	minus	y_7	34
25	11	shape	illusion	5.939706407340964	0.0	y	7	minus	y_7	34
26	37	shape	control	5.402438406688817	1.0	y	7	minus	y_7	34
27	49	colour	control	4.986773053856268	1.0	y	7	minus	y_7	34
28	33	shape	control	5.366728650670666	1.0	y	7	minus	y_7	34
29	21	colour	illusion	6.73345932740358	0.0	y	7	2	y_7	34
30	4	shape	illusion	6.1213465535256555	1.0	y	7	minus	y_7	34
31	15	shape	illusion	4.890519689072789	0.0	y	7	2	y_7	34
32	19	colour	illusion	9.60378930409206	1.0	y	7	minus	y_7	34
33	17	colour	illusion	5.6697587081180245	0.0	y	7	2	y_7	34
34	47	colour	control	5.876806893150388	1.0	y	7	minus	y_7	34
35	45	colour	control	5.041388403871679	0.0	y	7	2	y_7	34
36	5	shape	illusion	4.203516758169826	0.0	y	7	2	y_7	34
37	16	shape	illusion	4.644431306554907	1.0	y	7	minus	y_7	34
38	35	shape	control	8.151882151240898	0.0	y	7	minus	y_7	34
40	48	colour	control	6.610762200643876	1.0	y	7	minus	y_7	34
41	34	shape	control	4.567091234808687	0.0	y	7	2	y_7	34
42	13	shape	illusion	12.174009184546776	1.0	y	7	minus	y_7	34
43	20	colour	illusion	3.849312820396335	0.0	y	7	minus	y_7	34
44	9	shape	illusion	5.8801932539417985	0.0	y	7	minus	y_7	34
45	39	shape	control	4.755792613867925	1.0	y	7	2	y_7	34
46	41	shape	control	3.271035694762759	0.0	y	7	minus	y_7	34
47	28	ambiguous	illusion	11.602689557390475	1.0	y	7	2	y_7	34
48	29	ambiguous	illusion	14.287966283079186	1.0	y	7	2	y_7	34
0	23	ambiguous	illusion	6.5858971465349905	1.0	y	8	2	y_8	35
1	24	ambiguous	illusion	5.036672946109321	1.0	y	8	2	y_8	35
2	47	colour	control	13.710720018023494	1.0	y	8	minus	y_8	35
3	6	shape	illusion	11.100987057108798	0.0	y	8	minus	y_8	35
4	41	shape	control	3.9606607556961535	0.0	y	8	minus	y_8	35
6	2	shape	illusion	15.922717873640067	1.0	y	8	minus	y_8	35
7	19	colour	illusion	9.89523271555845	0.0	y	8	minus	y_8	35
8	11	shape	illusion	6.101493167509034	0.0	y	8	minus	y_8	35
9	20	colour	illusion	4.216135885577387	0.0	y	8	minus	y_8	35
10	17	colour	illusion	6.027929676181884	0.0	y	8	2	y_8	35
12	22	colour	illusion	18.194089894770514	1.0	y	8	minus	y_8	35
13	35	shape	control	7.218308229745162	1.0	y	8	minus	y_8	35
14	33	shape	control	5.569726736852317	1.0	y	8	minus	y_8	35
16	3	shape	illusion	4.556037848466076	0.0	y	8	2	y_8	35
17	46	colour	control	7.8053679309159625	1.0	y	8	minus	y_8	35
18	38	shape	control	12.101980638137322	1.0	y	8	minus	y_8	35
19	45	colour	control	4.871419593077008	0.0	y	8	2	y_8	35
20	13	shape	illusion	11.131136487318145	1.0	y	8	minus	y_8	35
21	9	shape	illusion	10.910851631042533	0.0	y	8	minus	y_8	35
22	32	shape	control	5.441989577124332	1.0	y	8	2	y_8	35
23	49	colour	control	4.691724061640343	1.0	y	8	minus	y_8	35
24	1	shape	illusion	5.105435479837978	0.0	y	8	2	y_8	35
25	37	shape	control	4.382645802545085	1.0	y	8	minus	y_8	35
26	7	shape	illusion	8.233197357527388	1.0	y	8	2	y_8	35
27	36	shape	control	4.158386622151738	1.0	y	8	2	y_8	35
28	16	shape	illusion	4.718051932843082	0.0	y	8	minus	y_8	35
29	14	shape	illusion	12.710491072966759	1.0	y	8	2	y_8	35
30	42	shape	control	3.5853359272350644	1.0	y	8	2	y_8	35
31	31	shape	control	4.1777837389035986	1.0	y	8	2	y_8	35
32	21	colour	illusion	8.4670908701155	0.0	y	8	2	y_8	35
33	8	shape	illusion	4.036016907084559	0.0	y	8	minus	y_8	35
35	5	shape	illusion	4.224668445009229	0.0	y	8	2	y_8	35
36	39	shape	control	5.4852954465059165	1.0	y	8	2	y_8	35
37	48	colour	control	9.272539438317837	1.0	y	8	minus	y_8	35
38	44	colour	control	4.079330475504322	1.0	y	8	2	y_8	35
39	10	shape	illusion	6.794862391865536	0.0	y	8	2	y_8	35
40	12	shape	illusion	7.08269009227115	0.0	y	8	2	y_8	35
41	40	shape	control	8.26290186442202	0.0	y	8	2	y_8	35
42	4	shape	illusion	8.168170072545763	1.0	y	8	minus	y_8	35
43	18	colour	illusion	6.344381992195848	1.0	y	8	2	y_8	35
44	34	shape	control	13.780641054265287	1.0	y	8	2	y_8	35
45	43	shape	control	5.6137806284932585	1.0	y	8	minus	y_8	35
46	15	shape	illusion	4.35752343850254	0.0	y	8	2	y_8	35
47	28	ambiguous	illusion	9.95555913042881	1.0	y	8	2	y_8	35
48	29	ambiguous	illusion	6.103584469177804	0.0	y	8	2	y_8	35
0	23	ambiguous	illusion	6.9958972235217525	1.0	y	9	2	y_9	36
1	24	ambiguous	illusion	6.283512997797517	1.0	y	9	2	y_9	36
2	12	shape	illusion	9.029872264865844	1.0	y	9	2	y_9	36
3	46	colour	control	6.620852396892588	1.0	y	9	minus	y_9	36
4	14	shape	illusion	14.574551601988787	0.0	y	9	2	y_9	36
5	17	colour	illusion	6.1524004180173515	0.0	y	9	2	y_9	36
6	3	shape	illusion	10.87888239153108	1.0	y	9	2	y_9	36
8	33	shape	control	8.36355056910179	0.0	y	9	minus	y_9	36
9	37	shape	control	8.007378514255834	1.0	y	9	minus	y_9	36
10	38	shape	control	13.593167063841975	1.0	y	9	minus	y_9	36
11	42	shape	control	5.616662094518689	1.0	y	9	2	y_9	36
12	22	colour	illusion	7.429286975944706	0.0	y	9	minus	y_9	36
13	16	shape	illusion	11.009245328204997	1.0	y	9	minus	y_9	36
14	36	shape	control	6.0393744977918695	1.0	y	9	2	y_9	36
15	44	colour	control	4.81537222211773	1.0	y	9	2	y_9	36
16	49	colour	control	5.4965785883287035	1.0	y	9	minus	y_9	36
17	40	shape	control	6.495345121507852	1.0	y	9	2	y_9	36
19	31	shape	control	8.061896613275168	0.0	y	9	2	y_9	36
20	32	shape	control	6.3905567660149245	1.0	y	9	2	y_9	36
21	9	shape	illusion	8.276495933085242	1.0	y	9	minus	y_9	36
22	10	shape	illusion	7.0894721337390365	0.0	y	9	2	y_9	36
23	35	shape	control	11.00205442733204	1.0	y	9	minus	y_9	36
24	47	colour	control	8.209341282523383	1.0	y	9	minus	y_9	36
25	20	colour	illusion	4.35286916782934	0.0	y	9	minus	y_9	36
26	4	shape	illusion	13.070255336548145	0.0	y	9	minus	y_9	36
27	19	colour	illusion	5.2915580866028895	0.0	y	9	minus	y_9	36
28	1	shape	illusion	6.33615779946922	0.0	y	9	2	y_9	36
29	41	shape	control	5.712046278509661	0.0	y	9	minus	y_9	36
30	34	shape	control	11.9922746238517	0.0	y	9	2	y_9	36
33	39	shape	control	5.418609221582301	1.0	y	9	2	y_9	36
34	18	colour	illusion	7.828111697632266	1.0	y	9	2	y_9	36
35	7	shape	illusion	8.949556717794621	0.0	y	9	2	y_9	36
36	21	colour	illusion	7.509277947807277	0.0	y	9	2	y_9	36
37	8	shape	illusion	6.341960037134412	0.0	y	9	minus	y_9	36
38	43	shape	control	9.141424832476332	1.0	y	9	minus	y_9	36
39	5	shape	illusion	4.4705574629806515	0.0	y	9	2	y_9	36
40	13	shape	illusion	10.527056240658569	1.0	y	9	minus	y_9	36
41	48	colour	control	7.9466019083083665	1.0	y	9	minus	y_9	36
42	45	colour	control	4.9207635337952516	1.0	y	9	2	y_9	36
43	15	shape	illusion	4.661102153662796	0.0	y	9	2	y_9	36
44	2	shape	illusion	9.621001515090027	1.0	y	9	minus	y_9	36
45	6	shape	illusion	6.2615200898253525	0.0	y	9	minus	y_9	36
46	11	shape	illusion	6.896983638736856	1.0	y	9	minus	y_9	36
47	28	ambiguous	illusion	8.475503891866538	1.0	y	9	2	y_9	36
48	29	ambiguous	illusion	14.842493094169185	1.0	y	9	2	y_9	36
0	23	ambiguous	illusion	18.38158222108359	1.0	n	28	2	n_28	37
1	24	ambiguous	illusion	5.330783581635842	1.0	n	28	2	n_28	37
2	35	shape	control	8.281070109595019	1.0	n	28	minus	n_28	37
3	36	shape	control	5.848965606108322	1.0	n	28	2	n_28	37
4	1	shape	illusion	9.318817159422906	0.0	n	28	2	n_28	37
5	19	colour	illusion	5.485309718449571	0.0	n	28	minus	n_28	37
6	47	colour	control	8.02972742766724	1.0	n	28	minus	n_28	37
7	15	shape	illusion	4.529022757718849	0.0	n	28	2	n_28	37
8	2	shape	illusion	13.493534784924126	0.0	n	28	minus	n_28	37
9	39	shape	control	5.9796496667895545	1.0	n	28	2	n_28	37
10	48	colour	control	5.0153110718674725	1.0	n	28	minus	n_28	37
11	41	shape	control	3.44999112577716	1.0	n	28	minus	n_28	37
12	43	shape	control	4.869504364576641	1.0	n	28	minus	n_28	37
13	16	shape	illusion	5.788245667637966	0.0	n	28	minus	n_28	37
14	32	shape	control	6.144112095604213	1.0	n	28	2	n_28	37
15	6	shape	illusion	8.142027666501235	1.0	n	28	minus	n_28	37
16	7	shape	illusion	12.03883829546794	1.0	n	28	2	n_28	37
17	34	shape	control	6.04951937376245	1.0	n	28	2	n_28	37
18	3	shape	illusion	5.21531374629194	0.0	n	28	2	n_28	37
19	14	shape	illusion	20.043316333187253	1.0	n	28	2	n_28	37
20	40	shape	control	7.028181935325848	1.0	n	28	2	n_28	37
22	17	colour	illusion	7.642314964370597	0.0	n	28	2	n_28	37
24	10	shape	illusion	6.297941666780388	0.0	n	28	2	n_28	37
25	13	shape	illusion	11.825264545012033	1.0	n	28	minus	n_28	37
26	37	shape	control	4.927089149865424	1.0	n	28	minus	n_28	37
27	44	colour	control	4.974438188815839	1.0	n	28	2	n_28	37
29	4	shape	illusion	14.878714510203281	1.0	n	28	minus	n_28	37
30	18	colour	illusion	7.088537990179247	1.0	n	28	2	n_28	37
31	45	colour	control	8.702633739385421	1.0	n	28	2	n_28	37
32	5	shape	illusion	5.185168946545673	0.0	n	28	2	n_28	37
33	38	shape	control	12.803991941071216	0.0	n	28	minus	n_28	37
34	46	colour	control	9.348516627211213	1.0	n	28	minus	n_28	37
35	33	shape	control	6.1894050705432155	1.0	n	28	minus	n_28	37
36	49	colour	control	4.282511866738787	1.0	n	28	minus	n_28	37
37	21	colour	illusion	5.889305225417048	1.0	n	28	2	n_28	37
38	20	colour	illusion	12.327694217816315	0.0	n	28	minus	n_28	37
39	11	shape	illusion	6.089426628013825	1.0	n	28	minus	n_28	37
40	9	shape	illusion	12.052768392535652	1.0	n	28	minus	n_28	37
41	8	shape	illusion	4.432820924685076	0.0	n	28	minus	n_28	37
42	31	shape	control	5.079575026076783	1.0	n	28	2	n_28	37
43	12	shape	illusion	9.506869215041661	0.0	n	28	2	n_28	37
44	42	shape	control	4.812398544141615	1.0	n	28	2	n_28	37
46	22	colour	illusion	6.594863405869546	0.0	n	28	minus	n_28	37
47	28	ambiguous	illusion	11.287272339739502	1.0	n	28	2	n_28	37
48	29	ambiguous	illusion	5.742425101971094	0.0	n	28	2	n_28	37
0	23	ambiguous	illusion	13.372381800632866	0.0	n	29	2	n_29	38
1	24	ambiguous	illusion	5.895709658150736	0.0	n	29	2	n_29	38
2	13	shape	illusion	9.257401465745717	0.0	n	29	minus	n_29	38
3	38	shape	control	13.749492467446544	1.0	n	29	minus	n_29	38
4	11	shape	illusion	10.877037728003415	1.0	n	29	minus	n_29	38
7	45	colour	control	8.46907353933966	0.0	n	29	2	n_29	38
8	8	shape	illusion	9.237891144499374	1.0	n	29	minus	n_29	38
9	6	shape	illusion	12.731810884253722	1.0	n	29	minus	n_29	38
10	41	shape	control	4.153906156925586	0.0	n	29	minus	n_29	38
11	21	colour	illusion	14.407200762454524	1.0	n	29	2	n_29	38
12	31	shape	control	7.0733314639401215	0.0	n	29	2	n_29	38
13	47	colour	control	9.392326107798	1.0	n	29	minus	n_29	38
14	14	shape	illusion	8.959663217201523	0.0	n	29	2	n_29	38
15	2	shape	illusion	15.21449034816942	1.0	n	29	minus	n_29	38
16	43	shape	control	7.899947403013357	1.0	n	29	minus	n_29	38
17	12	shape	illusion	10.430100712288551	0.0	n	29	2	n_29	38
18	35	shape	control	8.990559286690768	1.0	n	29	minus	n_29	38
19	40	shape	control	6.833999372725883	1.0	n	29	2	n_29	38
20	42	shape	control	6.607769523085152	1.0	n	29	2	n_29	38
21	18	colour	illusion	10.459128332595355	0.0	n	29	2	n_29	38
22	46	colour	control	5.935190220363437	1.0	n	29	minus	n_29	38
23	33	shape	control	6.559479168270628	1.0	n	29	minus	n_29	38
24	16	shape	illusion	6.222315061620974	0.0	n	29	minus	n_29	38
26	17	colour	illusion	6.456201055019847	0.0	n	29	2	n_29	38
27	20	colour	illusion	4.23432038453393	0.0	n	29	minus	n_29	38
28	36	shape	control	8.733706888097004	1.0	n	29	2	n_29	38
29	32	shape	control	5.615802922577132	0.0	n	29	2	n_29	38
30	10	shape	illusion	7.888514649759601	1.0	n	29	2	n_29	38
31	1	shape	illusion	19.623784049254027	0.0	n	29	2	n_29	38
32	5	shape	illusion	4.706215034959313	0.0	n	29	2	n_29	38
33	37	shape	control	6.190098799670523	1.0	n	29	minus	n_29	38
34	4	shape	illusion	9.372337632130439	1.0	n	29	minus	n_29	38
