block	randomize	Trialnumber	type	IllusionType	Condition	Picture	Question_display1	keyboard	key	title	trialAudio	presTime	ITI	answer_type	keypress	RT	ACC	t	literate	number
1		23	test	ambiguous	illusion	Kaniza.png	Can you notice one triangle?	2 minus	2		kaniza1.wav	5000	500	yes-no	2	4.891269675321382	1	10.11522514680837	y	16
1		24	test	ambiguous	illusion	Kaniza.png	Can you notice another triangle?	2 minus	2		kaniza2.wav	5000	500	yes-no	2	4.70545851953284	1	15.34531601272829	y	16
2	yes	41	test	shape	control	Bourdon_control.png	Are the lines of the right side of the triangles bent?	2 minus	minus		bourdonC.wav	5000	500	yes-no	minus	3.471644112276408	1	19.326538650431758	y	16
2	yes	3	test	shape	illusion	ebbinghaus.png	Are the orange circles of the same size?	2 minus	2		ebbinghausQC.wav	5000	500	yes-no	minus	4.450895773261436	0	24.28901310148285	y	16
2	yes	47	test	colour	control	whitesdottedline_control.png	Do the squares have different colour?	2 minus	minus		whitesdottedC.wav	5000	500	yes-no	minus	4.766392253543017	1	29.574533635463013	y	16
2	yes	44	test	colour	control	checkerboard_control.png	Do the two boxes have same colour?	2 minus	2		CheckerboardC.wav	5000	500	yes-no	minus	5.842197460748139	0	35.948828760050674	y	16
2	yes	49	test	colour	control	cyan_square_control.png	Do the circles inside and outside the square have different colours?	2 minus	minus		cyansquareC.wav	5000	500	yes-no	minus	3.948173523753212	1	40.42558590362751	y	16
2	yes	25	test	ambiguous	illusion	wifeMIL.png	What do you see?	2 minus			ambiguious.wav	30000	500	spoken				67.87339675793919	y	16
2	yes	36	test	shape	control	ehrensein_control.png	Are the lines of the square straight?	2 minus	2		ehrenseinQC.wav	5000	500	yes-no	2	6.49558070063722	1	74.88947658897814	y	16
2	yes	37	test	shape	control	Hering_control.png	Are the red lines bent?	2 minus	minus		heringQC.wav	5000	500	yes-no	minus	4.2700262418693455	1	79.69819824200385	y	16
2	yes	1	test	shape	illusion	mullerlyer.png	Are the two lines of same length?	2 minus	2		mullerlyerQC.wav	5000	500	yes-no	minus	5.716118164589716	0	85.92740613952628	y	16
2	yes	39	test	shape	control	sander_control.png	Are the blue lines of the same length?	2 minus	2		sanderQC.wav	5000	500	yes-no	2	5.332305297164567	1	91.7734681572183	y	16
2	yes	22	test	colour	illusion	cyan_square.png	Do the circles inside and outside the square have different colours?	2 minus	minus		cyansquareQC.wav	5000	500	yes-no	minus	6.633693328341906	1	98.92863597389078	y	16
2	yes	32	test	shape	control	ebbinghaus_control.png	are the circles of the same size?	2 minus	2		ebbinghausQC.wav	5000	500	yes-no	2	4.576090074933745	1	104.0365157475535	y	16
2	yes	2	test	shape	illusion	Poggendoff.png	Will the black line behind the grey bar meet the blue line?	2 minus	minus		poggendoffQ.wav	5000	500	yes-no	minus	10.245490742407128	1	114.8061776991126	y	16
2	yes	31	test	shape	control	Mullerlyer_control.png	are the lines of same length?	2 minus	2		mullerlyerQC.wav	5000	500	yes-no	2	7.2689118944254005	1	122.59604459334878	y	16
2	yes	26	test	ambiguous	illusion	Rubinsvase.png	What do you see?	2 minus			ambiguious.wav	30000	500	spoken				150.0147122228118	y	16
2	yes	35	test	shape	control	delbouef_control.png	Do the two black circles have different sizes?	2 minus	minus		delbouefQC.wav	5000	500	yes-no	minus	6.100485774444678	1	156.64332250592633	y	16
2	yes	8	test	shape	illusion	Hering.png	Are the red lines bent?	2 minus	minus		heringQC.wav	5000	500	yes-no	2	5.628708345695486	0	162.80713401182948	y	16
2	yes	30	test	ambiguous	illusion	husbandFIL.png	What do you see?	2 minus			ambiguious.wav	30000	500	spoken				189.96549615611002	y	16
2	yes	20	test	colour	illusion	Whitedottedline.png	Do the squares have different colour?	2 minus	minus		whitedottedlineQ.wav	5000	500	yes-no	2	4.299496071824251	0	194.77350989459592	y	16
2	yes	7	test	shape	illusion	Ehrenstein.png	Are the lines of the square straight?	2 minus	2		ehrenseinQC.wav	5000	500	yes-no	minus	4.421510228494299	0	199.7136641689067	y	16
2	yes	6	test	shape	illusion	Delboeuf.png	Do the two black circles have different sizes?	2 minus	minus		delbouefQC.wav	5000	500	yes-no	minus	4.974297880067752	1	205.217160788583	y	16
2	yes	14	test	shape	illusion	Oppel-kundt.png	Is the third lines from the right the middlemost line?	2 minus	2		oppelkundtQ.wav	5000	500	yes-no	minus	7.015219149594486	0	212.73746055209995	y	16
2	yes	48	test	colour	control	saturation_control.png	Do the squares have different colour?	2 minus	minus		saturatedC.wav	5000	500	yes-no	minus	5.025761686869373	1	218.28440983348628	y	16
2	yes	46	test	colour	control	white_control.png	Do the horizontal bars have different colours?	2 minus	minus		WhitesC.wav	5000	500	yes-no	minus	10.739269036701444	1	229.54892066332468	y	16
2	yes	12	test	shape	illusion	Giovanelli.png	Are the two dots at the same height?	2 minus	2		giovanelliQC.wav	5000	500	yes-no	2	11.628111460679065	1	241.70335138981318	y	16
2	yes	33	test	shape	control	ponzo_control.png	Are the two horizontal lines of different length?	2 minus	minus		ponzoQC.wav	5000	500	yes-no	minus	5.737777026773983	1	247.9781348822362	y	16
2	yes	16	test	shape	illusion	amodal.png	Are the black rectangles having different sizes?	2 minus	minus		amodalQ.wav	5000	500	yes-no	2	4.837555697111384	0	253.32956116592322	y	16
2	yes	45	test	colour	control	cornsweet_control.png	Do the two rectangles have the same colour?	2 minus	2		cornsweetC.wav	5000	500	yes-no	minus	4.552718359424034	0	258.3945446411635	y	16
2	yes	18	test	colour	illusion	cornsweet.png	Do the two rectangles on the side of the black bar have the same colour?	2 minus	2		cornsweetQ.wav	5000	500	yes-no	2	7.2950362507363025	1	266.2170692094842	y	16
2	yes	9	test	shape	illusion	Orbison.png	Does the red figure look like an elongated square?	2 minus	minus		orbisonQC.wav	5000	500	yes-no	2	23.0406177618097	0	289.7795593829687	y	16
2	yes	21	test	colour	illusion	saturationcontrast.png	Do the two small boxes have the same colour?	2 minus	2		saturationcontrastQ.wav	5000	500	yes-no	minus	7.769218643883505	0	298.07547657601026	y	16
2	yes	11	test	shape	illusion	verticalhorizontal.png	Do the vertical and horizontal lines have different length?	2 minus	minus		verticalhorizontalQ.wav	5000	500	yes-no	minus	8.951120668836666	1	307.54182530922117	y	16
2	yes	13	test	shape	illusion	bourdon.png	Are the lines of the right side of the triangles bent?	2 minus	minus		bourdonQC.wav	5000	500	yes-no	minus	6.926141456482583	1	315.00004862606875	y	16
2	yes	4	test	shape	illusion	Ponzo.png	Are the two horizontal lines of different length?	2 minus	minus		ponzoQC.wav	5000	500	yes-no	2	9.619753854833107	0	325.14357374062456	y	16
2	yes	10	test	shape	illusion	sanders.png	Are the blue lines of the same length?	2 minus	2		sanderQC.wav	5000	500	yes-no	minus	5.266796660362161	0	330.92367084688885	y	16
2	yes	19	test	colour	illusion	White.png	Do the horizontal bars have different colours?	2 minus	minus		whiteQC.wav	5000	500	yes-no	minus	6.42285028194965	1	337.8807555032545	y	16
2	yes	15	test	shape	illusion	shepardtable.png	Do the red shapes have the same size?	2 minus	2		shepardtableQC.wav	5000	500	yes-no	minus	4.458430382866936	0	342.84976165121043	y	16
2	yes	42	test	shape	control	sheperdtable_control.png	Do the red shapes have the same size?	2 minus	2		shepardtableQC.wav	5000	500	yes-no	2	4.394525190738932	1	347.74658442377404	y	16
2	yes	5	test	shape	illusion	jastrow.png	Do the two figures have same size?	2 minus	2		jastrowQC.wav	5000	500	yes-no	minus	5.093166740414745	0	353.38510145829423	y	16
2	yes	38	test	shape	control	orbison_control.png	Does the red figure look like an elongated square?	2 minus	minus		orbisonQC.wav	5000	500	yes-no	2	12.944872624007985	0	366.8405437691363	y	16
2	yes	27	test	ambiguous	illusion	DuckRabbit.png	What do you see? 	2 minus			ambiguious.wav	30000	500	spoken				394.00460934625517	y	16
2	yes	40	test	shape	control	giovanelli_control.png	Are the two dots at the same height?	2 minus	2		giovanelliQC.wav	5000	500	yes-no	2	6.125094213013654	1	400.66426210748614	y	16
2	yes	43	test	shape	control	amodal_control.png	Are the black rectangles having different sizes?	2 minus	minus		amodalC.wav	5000	500	yes-no	minus	6.166886294420692	1	407.37368324653653	y	16
2	yes	34	test	shape	control	jastrow_control.png	Are both the figures of same size?	2 minus	2		jastrowQC.wav	5000	500	yes-no	2	4.615430186739104	1	412.5217289647662	y	16
2	yes	17	test	colour	illusion	checkerboard.png	Do the boxes pointed by arrows have the same colour?	2 minus	2		checkerboard.wav	5000	500	yes-no	minus	5.86383444119565	0	418.901466967498	y	16
3		28	test	ambiguous	illusion	stairs.png	Are the stairs going from right bottom to left top?	2 minus	2		stairsQ1.wav	5000	500	yes-no	2	10.986726703657041	1	430.424830983884	y	16
3		29	test	ambiguous	illusion	stairs.png	Can you also see another representation?	2 minus	2		stairs2.wav	5000	500	yes-no	minus	15.173434605228977	0	446.11157130283755	y	16
