block	randomize	Trialnumber	type	IllusionType	Condition	Picture	Question_display1	keyboard	key	title	trialAudio	presTime	ITI	answer_type	keypress	RT	ACC	t	literate	number
1		23	test	ambiguous	illusion	Kaniza.png	Can you notice one triangle?	2 minus	2		kaniza1.wav	5000	500	yes-no	2	14.08816208175449	1	19.28265435252979	y	5
1		24	test	ambiguous	illusion	Kaniza.png	Can you notice another triangle?	2 minus	2		kaniza2.wav	5000	500	yes-no	2	6.251727319548081	1	26.050304294320995	y	5
2	yes	1	test	shape	illusion	mullerlyer.png	Are the two lines of same length?	2 minus	2		mullerlyerQC.wav	5000	500	yes-no	minus	5.851332804665617	0	32.41683965863285	y	5
2	yes	36	test	shape	control	ehrensein_control.png	Are the lines of the square straight?	2 minus	2		ehrenseinQC.wav	5000	500	yes-no	minus	8.873645020080403	0	41.801401305838226	y	5
2	yes	12	test	shape	illusion	Giovanelli.png	Are the two dots at the same height?	2 minus	2		giovanelliQC.wav	5000	500	yes-no	2	6.975530433282074	1	49.283136150182145	y	5
2	yes	33	test	shape	control	ponzo_control.png	Are the two horizontal lines of different length?	2 minus	minus		ponzoQC.wav	5000	500	yes-no	minus	5.669156157143334	1	55.467751366478296	y	5
2	yes	45	test	colour	control	cornsweet_control.png	Do the two rectangles have the same colour?	2 minus	2		cornsweetC.wav	5000	500	yes-no	minus	9.883488441921145	0	65.88416028423217	y	5
2	yes	27	test	ambiguous	illusion	DuckRabbit.png	What do you see? 	2 minus			ambiguious.wav	30000	500	spoken				92.98536331959804	y	5
2	yes	32	test	shape	control	ebbinghaus_control.png	are the circles of the same size?	2 minus	2		ebbinghausQC.wav	5000	500	yes-no	2	8.002117235268088	1	101.49994387807055	y	5
2	yes	39	test	shape	control	sander_control.png	Are the blue lines of the same length?	2 minus	2		sanderQC.wav	5000	500	yes-no	2	6.802075174210586	1	108.81637795952065	y	5
2	yes	41	test	shape	control	Bourdon_control.png	Are the lines of the right side of the triangles bent?	2 minus	minus		bourdonC.wav	5000	500	yes-no	minus	6.255979214220133	1	115.58294152662256	y	5
2	yes	11	test	shape	illusion	verticalhorizontal.png	Do the vertical and horizontal lines have different length?	2 minus	minus		verticalhorizontalQ.wav	5000	500	yes-no	minus	14.305367728309648	1	130.39918090347055	y	5
2	yes	3	test	shape	illusion	ebbinghaus.png	Are the orange circles of the same size?	2 minus	2		ebbinghausQC.wav	5000	500	yes-no	minus	5.10226712336771	0	136.0157372375288	y	5
2	yes	9	test	shape	illusion	Orbison.png	Does the red figure look like an elongated square?	2 minus	minus		orbisonQC.wav	5000	500	yes-no	2	7.134763949541593	0	143.64882745687464	y	5
2	yes	48	test	colour	control	saturation_control.png	Do the squares have different colour?	2 minus	minus		saturatedC.wav	5000	500	yes-no	minus	7.377921835321104	1	151.54861354520017	y	5
2	yes	35	test	shape	control	delbouef_control.png	Do the two black circles have different sizes?	2 minus	minus		delbouefQC.wav	5000	500	yes-no	minus	8.93419875915879	1	160.99847802188287	y	5
2	yes	6	test	shape	illusion	Delboeuf.png	Do the two black circles have different sizes?	2 minus	minus		delbouefQC.wav	5000	500	yes-no	2	6.01885007988767	0	167.5316983549592	y	5
2	yes	43	test	shape	control	amodal_control.png	Are the black rectangles having different sizes?	2 minus	minus		amodalC.wav	5000	500	yes-no	2	4.5979254741296245	0	172.6481268444768	y	5
2	yes	13	test	shape	illusion	bourdon.png	Are the lines of the right side of the triangles bent?	2 minus	minus		bourdonQC.wav	5000	500	yes-no	2	13.512607984063834	0	186.6811172194648	y	5
2	yes	20	test	colour	illusion	Whitedottedline.png	Do the squares have different colour?	2 minus	minus		whitedottedlineQ.wav	5000	500	yes-no	2	9.514287995053564	0	196.6976681236756	y	5
2	yes	19	test	colour	illusion	White.png	Do the horizontal bars have different colours?	2 minus	minus		whiteQC.wav	5000	500	yes-no	2	4.917310718154113	0	202.14744223797243	y	5
2	yes	8	test	shape	illusion	Hering.png	Are the red lines bent?	2 minus	minus		heringQC.wav	5000	500	yes-no	minus	8.901472582714632	1	211.563822790853	y	5
2	yes	47	test	colour	control	whitesdottedline_control.png	Do the squares have different colour?	2 minus	minus		whitesdottedC.wav	5000	500	yes-no	minus	7.424594210080613	1	219.49692788149696	y	5
2	yes	5	test	shape	illusion	jastrow.png	Do the two figures have same size?	2 minus	2		jastrowQC.wav	5000	500	yes-no	minus	5.169940851132196	0	225.18021217736532	y	5
2	yes	26	test	ambiguous	illusion	Rubinsvase.png	What do you see?	2 minus			ambiguious.wav	30000	500	spoken				252.29641091140002	y	5
2	yes	49	test	colour	control	cyan_square_control.png	Do the circles inside and outside the square have different colours?	2 minus	minus		cyansquareC.wav	5000	500	yes-no	minus	8.14666544562624	1	260.9794038594873	y	5
2	yes	31	test	shape	control	Mullerlyer_control.png	are the lines of same length?	2 minus	2		mullerlyerQC.wav	5000	500	yes-no	2	11.086335789055738	1	272.5791013278413	y	5
2	yes	17	test	colour	illusion	checkerboard.png	Do the boxes pointed by arrows have the same colour?	2 minus	2		checkerboard.wav	5000	500	yes-no	minus	6.289534455420835	0	279.3788165445021	y	5
2	yes	22	test	colour	illusion	cyan_square.png	Do the circles inside and outside the square have different colours?	2 minus	minus		cyansquareQC.wav	5000	500	yes-no	minus	7.509478527992542	1	287.3955720810218	y	5
2	yes	30	test	ambiguous	illusion	husbandFIL.png	What do you see?	2 minus			ambiguious.wav	30000	500	spoken				314.4948167244165	y	5
2	yes	16	test	shape	illusion	amodal.png	Are the black rectangles having different sizes?	2 minus	minus		amodalQ.wav	5000	500	yes-no	minus	9.857817825378788	1	324.8610080633234	y	5
2	yes	46	test	colour	control	white_control.png	Do the horizontal bars have different colours?	2 minus	minus		WhitesC.wav	5000	500	yes-no	minus	12.454951514298955	1	337.82600459267906	y	5
2	yes	21	test	colour	illusion	saturationcontrast.png	Do the two small boxes have the same colour?	2 minus	2		saturationcontrastQ.wav	5000	500	yes-no	minus	7.2043908015139095	0	345.56055475210997	y	5
2	yes	10	test	shape	illusion	sanders.png	Are the blue lines of the same length?	2 minus	2		sanderQC.wav	5000	500	yes-no	minus	6.875867610595378	0	352.9437569114061	y	5
2	yes	44	test	colour	control	checkerboard_control.png	Do the two boxes have same colour?	2 minus	2		CheckerboardC.wav	5000	500	yes-no	2	5.1879898259248876	1	358.6436585663341	y	5
2	yes	14	test	shape	illusion	Oppel-kundt.png	Is the third lines from the right the middlemost line?	2 minus	2		oppelkundtQ.wav	5000	500	yes-no	minus	14.759191941458084	0	373.89352069278357	y	5
2	yes	2	test	shape	illusion	Poggendoff.png	Will the black line behind the grey bar meet the blue line?	2 minus	minus		poggendoffQ.wav	5000	500	yes-no	2	9.57474326749525	0	383.99290351363834	y	5
2	yes	40	test	shape	control	giovanelli_control.png	Are the two dots at the same height?	2 minus	2		giovanelliQC.wav	5000	500	yes-no	2	6.836317250585125	1	391.32617093240606	y	5
2	yes	7	test	shape	illusion	Ehrenstein.png	Are the lines of the square straight?	2 minus	2		ehrenseinQC.wav	5000	500	yes-no	2	8.060513217828884	1	399.87448462036264	y	5
2	yes	42	test	shape	control	sheperdtable_control.png	Do the red shapes have the same size?	2 minus	2		shepardtableQC.wav	5000	500	yes-no	2	6.981513800928951	1	407.37572801489296	y	5
2	yes	34	test	shape	control	jastrow_control.png	Are both the figures of same size?	2 minus	2		jastrowQC.wav	5000	500	yes-no	minus	9.317229513570965	0	417.2087699329095	y	5
2	yes	15	test	shape	illusion	shepardtable.png	Do the red shapes have the same size?	2 minus	2		shepardtableQC.wav	5000	500	yes-no	minus	5.137652709392569	0	422.8752614127088	y	5
2	yes	37	test	shape	control	Hering_control.png	Are the red lines bent?	2 minus	minus		heringQC.wav	5000	500	yes-no	minus	6.214859061016796	1	429.60849989930466	y	5
2	yes	4	test	shape	illusion	Ponzo.png	Are the two horizontal lines of different length?	2 minus	minus		ponzoQC.wav	5000	500	yes-no	2	13.60282327751338	0	443.7248129032623	y	5
2	yes	38	test	shape	control	orbison_control.png	Does the red figure look like an elongated square?	2 minus	minus		orbisonQC.wav	5000	500	yes-no	2	12.475189041757403	0	456.70796538350714	y	5
2	yes	18	test	colour	illusion	cornsweet.png	Do the two rectangles on the side of the black bar have the same colour?	2 minus	2		cornsweetQ.wav	5000	500	yes-no	2	9.982201446528052	1	467.19096732731214	y	5
2	yes	25	test	ambiguous	illusion	wifeMIL.png	What do you see?	2 minus			ambiguious.wav	30000	500	spoken				494.27395808725123	y	5
3		28	test	ambiguous	illusion	stairs.png	Are the stairs going from right bottom to left top?	2 minus	2		stairsQ1.wav	5000	500	yes-no	2	8.341929646197059	1	503.1400977615658	y	5
3		29	test	ambiguous	illusion	stairs.png	Can you also see another representation?	2 minus	2		stairs2.wav	5000	500	yes-no	minus	12.246841672538721	0	515.9064040187359	y	5
