block	randomize	Trialnumber	type	IllusionType	Condition	Picture	Question_display1	keyboard	key	title	trialAudio	presTime	ITI	answer_type	keypress	RT	ACC	t	literate	number
1		23	test	ambiguous	illusion	Kaniza.png	Can you notice one triangle?	2 minus	2		kaniza1.wav	5000	500	yes-no	2	4.172904685088724	1	9.383995224995488	y	3
1		24	test	ambiguous	illusion	Kaniza.png	Can you notice another triangle?	2 minus	2		kaniza2.wav	5000	500	yes-no	2	6.128470478971394	1	16.01612131364527	y	3
2	yes	31	test	shape	control	Mullerlyer_control.png	are the lines of same length?	2 minus	2		mullerlyerQC.wav	5000	500	yes-no	2	7.4876712573004625	1	23.999285208061337	y	3
2	yes	8	test	shape	illusion	Hering.png	Are the red lines bent?	2 minus	minus		heringQC.wav	5000	500	yes-no	2	5.392166301774523	0	29.9001937313069	y	3
2	yes	17	test	colour	illusion	checkerboard.png	Do the boxes pointed by arrows have the same colour?	2 minus	2		checkerboard.wav	5000	500	yes-no	minus	5.843373445155521	0	36.26674381881185	y	3
2	yes	33	test	shape	control	ponzo_control.png	Are the two horizontal lines of different length?	2 minus	minus		ponzoQC.wav	5000	500	yes-no	2	7.217143579576259	0	44.00133395411649	y	3
2	yes	7	test	shape	illusion	Ehrenstein.png	Are the lines of the square straight?	2 minus	2		ehrenseinQC.wav	5000	500	yes-no	2	6.5166146578540065	1	51.03432581626657	y	3
2	yes	39	test	shape	control	sander_control.png	Are the blue lines of the same length?	2 minus	2		sanderQC.wav	5000	500	yes-no	2	6.068705930787473	1	57.61751621147323	y	3
2	yes	25	test	ambiguous	illusion	wifeMIL.png	What do you see?	2 minus			ambiguious.wav	30000	500	spoken				84.71713405712126	y	3
2	yes	15	test	shape	illusion	shepardtable.png	Do the red shapes have the same size?	2 minus	2		shepardtableQC.wav	5000	500	yes-no	minus	6.321786039756262	0	91.54986909663512	y	3
2	yes	46	test	colour	control	white_control.png	Do the horizontal bars have different colours?	2 minus	minus		WhitesC.wav	5000	500	yes-no	minus	5.102148792612752	1	97.16495890554143	y	3
2	yes	48	test	colour	control	saturation_control.png	Do the squares have different colour?	2 minus	minus		saturatedC.wav	5000	500	yes-no	minus	5.284186525037512	1	102.96629050943466	y	3
2	yes	32	test	shape	control	ebbinghaus_control.png	are the circles of the same size?	2 minus	2		ebbinghausQC.wav	5000	500	yes-no	2	5.196319388812299	1	108.68278757510052	y	3
2	yes	10	test	shape	illusion	sanders.png	Are the blue lines of the same length?	2 minus	2		sanderQC.wav	5000	500	yes-no	minus	5.660221382895543	0	114.85037346257923	y	3
2	yes	13	test	shape	illusion	bourdon.png	Are the lines of the right side of the triangles bent?	2 minus	minus		bourdonQC.wav	5000	500	yes-no	2	8.871399853556795	0	124.24904056201103	y	3
2	yes	14	test	shape	illusion	Oppel-kundt.png	Is the third lines from the right the middlemost line?	2 minus	2		oppelkundtQ.wav	5000	500	yes-no	2	12.371757452131533	1	137.11522292067093	y	3
2	yes	27	test	ambiguous	illusion	DuckRabbit.png	What do you see? 	2 minus			ambiguious.wav	30000	500	spoken				164.19832437209516	y	3
2	yes	41	test	shape	control	Bourdon_control.png	Are the lines of the right side of the triangles bent?	2 minus	minus		bourdonC.wav	5000	500	yes-no	minus	4.689552570232081	1	169.39618964029796	y	3
2	yes	22	test	colour	illusion	cyan_square.png	Do the circles inside and outside the square have different colours?	2 minus	minus		cyansquareQC.wav	5000	500	yes-no	2	6.806091615741934	0	176.71417237102196	y	3
2	yes	6	test	shape	illusion	Delboeuf.png	Do the two black circles have different sizes?	2 minus	minus		delbouefQC.wav	5000	500	yes-no	2	5.715012373113495	0	182.94735014391063	y	3
2	yes	30	test	ambiguous	illusion	husbandFIL.png	What do you see?	2 minus			ambiguious.wav	30000	500	spoken				210.02845876837728	y	3
2	yes	11	test	shape	illusion	verticalhorizontal.png	Do the vertical and horizontal lines have different length?	2 minus	minus		verticalhorizontalQ.wav	5000	500	yes-no	2	5.948415443232989	0	216.49627266800144	y	3
2	yes	20	test	colour	illusion	Whitedottedline.png	Do the squares have different colour?	2 minus	minus		whitedottedlineQ.wav	5000	500	yes-no	minus	6.221080608189368	1	223.2295547826834	y	3
2	yes	21	test	colour	illusion	saturationcontrast.png	Do the two small boxes have the same colour?	2 minus	2		saturationcontrastQ.wav	5000	500	yes-no	2	7.129519164649537	1	230.87921231873406	y	3
2	yes	5	test	shape	illusion	jastrow.png	Do the two figures have same size?	2 minus	2		jastrowQC.wav	5000	500	yes-no	minus	4.6895631057141145	0	236.07908581190713	y	3
2	yes	35	test	shape	control	delbouef_control.png	Do the two black circles have different sizes?	2 minus	minus		delbouefQC.wav	5000	500	yes-no	2	5.433122583170189	0	242.02898067995193	y	3
2	yes	36	test	shape	control	ehrensein_control.png	Are the lines of the square straight?	2 minus	2		ehrenseinQC.wav	5000	500	yes-no	2	6.2294003973502186	1	248.77885739455087	y	3
2	yes	1	test	shape	illusion	mullerlyer.png	Are the two lines of same length?	2 minus	2		mullerlyerQC.wav	5000	500	yes-no	minus	5.278700780557301	0	254.59516478101796	y	3
2	yes	9	test	shape	illusion	Orbison.png	Does the red figure look like an elongated square?	2 minus	minus		orbisonQC.wav	5000	500	yes-no	2	12.278894471343847	0	267.3948034139821	y	3
2	yes	2	test	shape	illusion	Poggendoff.png	Will the black line behind the grey bar meet the blue line?	2 minus	minus		poggendoffQ.wav	5000	500	yes-no	2	12.108764264940874	0	280.0112871482106	y	3
2	yes	43	test	shape	control	amodal_control.png	Are the black rectangles having different sizes?	2 minus	minus		amodalC.wav	5000	500	yes-no	2	5.759993208665946	0	286.27826679973805	y	3
2	yes	45	test	colour	control	cornsweet_control.png	Do the two rectangles have the same colour?	2 minus	2		cornsweetC.wav	5000	500	yes-no	2	5.524327441162313	1	292.31067232178884	y	3
2	yes	19	test	colour	illusion	White.png	Do the horizontal bars have different colours?	2 minus	minus		whiteQC.wav	5000	500	yes-no	2	5.556504424294872	0	298.3772448174541	y	3
2	yes	26	test	ambiguous	illusion	Rubinsvase.png	What do you see?	2 minus			ambiguious.wav	30000	500	spoken				325.7767353053323	y	3
2	yes	38	test	shape	control	orbison_control.png	Does the red figure look like an elongated square?	2 minus	minus		orbisonQC.wav	5000	500	yes-no	2	15.578446997002175	0	341.8759831934749	y	3
2	yes	44	test	colour	control	checkerboard_control.png	Do the two boxes have same colour?	2 minus	2		CheckerboardC.wav	5000	500	yes-no	2	5.038206520571293	1	347.4426324765964	y	3
2	yes	40	test	shape	control	giovanelli_control.png	Are the two dots at the same height?	2 minus	2		giovanelliQC.wav	5000	500	yes-no	2	8.995220132819668	1	356.94226272169544	y	3
2	yes	4	test	shape	illusion	Ponzo.png	Are the two horizontal lines of different length?	2 minus	minus		ponzoQC.wav	5000	500	yes-no	minus	10.662297278076949	1	368.1254022224193	y	3
2	yes	37	test	shape	control	Hering_control.png	Are the red lines bent?	2 minus	minus		heringQC.wav	5000	500	yes-no	2	6.0578381758050455	0	374.7085589851249	y	3
2	yes	49	test	colour	control	cyan_square_control.png	Do the circles inside and outside the square have different colours?	2 minus	minus		cyansquareC.wav	5000	500	yes-no	minus	8.234258875434534	1	383.45814516354494	y	3
2	yes	12	test	shape	illusion	Giovanelli.png	Are the two dots at the same height?	2 minus	2		giovanelliQC.wav	5000	500	yes-no	minus	6.971520565868559	0	390.92466400929425	y	3
2	yes	47	test	colour	control	whitesdottedline_control.png	Do the squares have different colour?	2 minus	minus		whitesdottedC.wav	5000	500	yes-no	minus	5.298000973316448	1	396.7411825106137	y	3
2	yes	3	test	shape	illusion	ebbinghaus.png	Are the orange circles of the same size?	2 minus	2		ebbinghausQC.wav	5000	500	yes-no	minus	5.152777051775047	0	402.4075910579686	y	3
2	yes	16	test	shape	illusion	amodal.png	Are the black rectangles having different sizes?	2 minus	minus		amodalQ.wav	5000	500	yes-no	2	6.45577103317828	0	409.37398813785785	y	3
2	yes	18	test	colour	illusion	cornsweet.png	Do the two rectangles on the side of the black bar have the same colour?	2 minus	2		cornsweetQ.wav	5000	500	yes-no	2	7.972876806581553	1	417.84045673746095	y	3
2	yes	42	test	shape	control	sheperdtable_control.png	Do the red shapes have the same size?	2 minus	2		shepardtableQC.wav	5000	500	yes-no	2	5.226441142515796	1	423.5909967822208	y	3
2	yes	34	test	shape	control	jastrow_control.png	Are both the figures of same size?	2 minus	2		jastrowQC.wav	5000	500	yes-no	2	5.979604927525543	1	430.09011078869844	y	3
3		28	test	ambiguous	illusion	stairs.png	Are the stairs going from right bottom to left top?	2 minus	2		stairsQ1.wav	5000	500	yes-no	2	8.625819792199763	1	439.2230912644236	y	3
3		29	test	ambiguous	illusion	stairs.png	Can you also see another representation?	2 minus	2		stairs2.wav	5000	500	yes-no	minus	15.859850939136777	0	455.6045668883571	y	3
