block	randomize	Trialnumber	type	IllusionType	Condition	Picture	Question_display1	keyboard	key	title	trialAudio	presTime	ITI	answer_type	keypress	RT	ACC	t	literate	number
1		23	test	ambiguous	illusion	Kaniza.png	Can you notice one triangle?	2 minus	2		kaniza1.wav	5000	500	yes-no	2	5.588700047126622	1	10.78399911501947	n	25
1		24	test	ambiguous	illusion	Kaniza.png	Can you notice another triangle?	2 minus	2		kaniza2.wav	5000	500	yes-no	2	4.246602003118824	1	15.549492250545882	n	25
2	yes	33	test	shape	control	ponzo_control.png	Are the two horizontal lines of different length?	2 minus	minus		ponzoQC.wav	5000	500	yes-no	minus	9.870723556648954	1	25.915853509794033	n	25
2	yes	47	test	colour	control	whitesdottedline_control.png	Do the squares have different colour?	2 minus	minus		whitesdottedC.wav	5000	500	yes-no	2	6.556051398563795	0	32.98345321496345	n	25
2	yes	20	test	colour	illusion	Whitedottedline.png	Do the squares have different colour?	2 minus	minus		whitedottedlineQ.wav	5000	500	yes-no	minus	6.3826418207590905	1	39.90000085094289	n	25
2	yes	12	test	shape	illusion	Giovanelli.png	Are the two dots at the same height?	2 minus	2		giovanelliQC.wav	5000	500	yes-no	2	5.750717121902198	1	46.16649627550396	n	25
2	yes	5	test	shape	illusion	jastrow.png	Do the two figures have same size?	2 minus	2		jastrowQC.wav	5000	500	yes-no	minus	6.591911343108222	0	53.26619799979926	n	25
2	yes	35	test	shape	control	delbouef_control.png	Do the two black circles have different sizes?	2 minus	minus		delbouefQC.wav	5000	500	yes-no	2	6.8725226928199845	0	60.650824138087046	n	25
2	yes	22	test	colour	illusion	cyan_square.png	Do the circles inside and outside the square have different colours?	2 minus	minus		cyansquareQC.wav	5000	500	yes-no	2	8.509391369250807	0	69.66736727622629	n	25
2	yes	18	test	colour	illusion	cornsweet.png	Do the two rectangles on the side of the black bar have the same colour?	2 minus	2		cornsweetQ.wav	5000	500	yes-no	2	7.117118091813609	1	77.30038928606336	n	25
2	yes	7	test	shape	illusion	Ehrenstein.png	Are the lines of the square straight?	2 minus	2		ehrenseinQC.wav	5000	500	yes-no	minus	5.588281464317333	0	83.40018015674468	n	25
2	yes	2	test	shape	illusion	Poggendoff.png	Will the black line behind the grey bar meet the blue line?	2 minus	minus		poggendoffQ.wav	5000	500	yes-no	minus	11.305956477923246	1	95.23322963987812	n	25
2	yes	39	test	shape	control	sander_control.png	Are the blue lines of the same length?	2 minus	2		sanderQC.wav	5000	500	yes-no	2	6.678784091907801	1	102.43293456533684	n	25
2	yes	17	test	colour	illusion	checkerboard.png	Do the boxes pointed by arrows have the same colour?	2 minus	2		checkerboard.wav	5000	500	yes-no	minus	6.001986748795389	0	108.94950302915458	n	25
2	yes	37	test	shape	control	Hering_control.png	Are the red lines bent?	2 minus	minus		heringQC.wav	5000	500	yes-no	minus	6.176825505268425	1	115.63342519463367	n	25
2	yes	15	test	shape	illusion	shepardtable.png	Do the red shapes have the same size?	2 minus	2		shepardtableQC.wav	5000	500	yes-no	2	4.780109496075966	1	120.93249349332655	n	25
2	yes	4	test	shape	illusion	Ponzo.png	Are the two horizontal lines of different length?	2 minus	minus		ponzoQC.wav	5000	500	yes-no	minus	7.23738629277068	1	128.68223891961134	n	25
2	yes	27	test	ambiguous	illusion	DuckRabbit.png	What do you see? 	2 minus			ambiguious.wav	30000	500	spoken				155.76491489964428	n	25
2	yes	34	test	shape	control	jastrow_control.png	Are both the figures of same size?	2 minus	2		jastrowQC.wav	5000	500	yes-no	2	5.2816231612050615	1	161.56463011745836	n	25
2	yes	11	test	shape	illusion	verticalhorizontal.png	Do the vertical and horizontal lines have different length?	2 minus	minus		verticalhorizontalQ.wav	5000	500	yes-no	minus	6.53645418625274	1	168.6144021660948	n	25
2	yes	45	test	colour	control	cornsweet_control.png	Do the two rectangles have the same colour?	2 minus	2		cornsweetC.wav	5000	500	yes-no	minus	6.6675046427026246	0	175.79757489410804	n	25
2	yes	14	test	shape	illusion	Oppel-kundt.png	Is the third lines from the right the middlemost line?	2 minus	2		oppelkundtQ.wav	5000	500	yes-no	minus	8.076139929031342	0	184.37911000299573	n	25
2	yes	31	test	shape	control	Mullerlyer_control.png	are the lines of same length?	2 minus	2		mullerlyerQC.wav	5000	500	yes-no	minus	7.9120830228403065	0	192.79562015697047	n	25
2	yes	8	test	shape	illusion	Hering.png	Are the red lines bent?	2 minus	minus		heringQC.wav	5000	500	yes-no	2	5.700617662896548	0	198.9968267938384	n	25
2	yes	32	test	shape	control	ebbinghaus_control.png	are the circles of the same size?	2 minus	2		ebbinghausQC.wav	5000	500	yes-no	2	5.57306701255402	1	205.08009438171212	n	25
2	yes	36	test	shape	control	ehrensein_control.png	Are the lines of the square straight?	2 minus	2		ehrenseinQC.wav	5000	500	yes-no	minus	5.993570519451168	0	211.58124335707544	n	25
2	yes	46	test	colour	control	white_control.png	Do the horizontal bars have different colours?	2 minus	minus		WhitesC.wav	5000	500	yes-no	minus	6.361252360858998	1	218.46296474138944	n	25
2	yes	44	test	colour	control	checkerboard_control.png	Do the two boxes have same colour?	2 minus	2		CheckerboardC.wav	5000	500	yes-no	2	5.665757373521046	1	224.66278920404875	n	25
2	yes	25	test	ambiguous	illusion	wifeMIL.png	What do you see?	2 minus			ambiguious.wav	30000	500	spoken				251.77912685976662	n	25
2	yes	21	test	colour	illusion	saturationcontrast.png	Do the two small boxes have the same colour?	2 minus	2		saturationcontrastQ.wav	5000	500	yes-no	minus	6.95745812855057	0	259.22854337640274	n	25
2	yes	40	test	shape	control	giovanelli_control.png	Are the two dots at the same height?	2 minus	2		giovanelliQC.wav	5000	500	yes-no	minus	6.90711149092931	0	266.6434221514992	n	25
2	yes	41	test	shape	control	Bourdon_control.png	Are the lines of the right side of the triangles bent?	2 minus	minus		bourdonC.wav	5000	500	yes-no	minus	6.648729197995635	1	273.81148010961806	n	25
2	yes	6	test	shape	illusion	Delboeuf.png	Do the two black circles have different sizes?	2 minus	minus		delbouefQC.wav	5000	500	yes-no	minus	6.164123765980548	1	280.49472719382175	n	25
2	yes	48	test	colour	control	saturation_control.png	Do the squares have different colour?	2 minus	minus		saturatedC.wav	5000	500	yes-no	2	7.339091784715492	0	288.3443348078963	n	25
2	yes	10	test	shape	illusion	sanders.png	Are the blue lines of the same length?	2 minus	2		sanderQC.wav	5000	500	yes-no	minus	7.427976000171839	0	296.2774292289123	n	25
2	yes	38	test	shape	control	orbison_control.png	Does the red figure look like an elongated square?	2 minus	minus		orbisonQC.wav	5000	500	yes-no	minus	7.504164149293501	1	304.29378678048306	n	25
2	yes	43	test	shape	control	amodal_control.png	Are the black rectangles having different sizes?	2 minus	minus		amodalC.wav	5000	500	yes-no	2	6.464052327308309	0	311.27714720216136	n	25
2	yes	49	test	colour	control	cyan_square_control.png	Do the circles inside and outside the square have different colours?	2 minus	minus		cyansquareC.wav	5000	500	yes-no	minus	6.335786074605494	1	318.1267762924108	n	25
2	yes	3	test	shape	illusion	ebbinghaus.png	Are the orange circles of the same size?	2 minus	2		ebbinghausQC.wav	5000	500	yes-no	2	6.849184979157144	1	325.4932967995228	n	25
2	yes	42	test	shape	control	sheperdtable_control.png	Do the red shapes have the same size?	2 minus	2		shepardtableQC.wav	5000	500	yes-no	2	5.653622524212551	1	331.65832864301774	n	25
2	yes	9	test	shape	illusion	Orbison.png	Does the red figure look like an elongated square?	2 minus	minus		orbisonQC.wav	5000	500	yes-no	minus	7.9732961998106475	1	340.12618792625653	n	25
2	yes	30	test	ambiguous	illusion	husbandFIL.png	What do you see?	2 minus			ambiguious.wav	30000	500	spoken				367.21054066878423	n	25
2	yes	16	test	shape	illusion	amodal.png	Are the black rectangles having different sizes?	2 minus	minus		amodalQ.wav	5000	500	yes-no	minus	5.694214926266795	1	373.4252019266969	n	25
2	yes	26	test	ambiguous	illusion	Rubinsvase.png	What do you see?	2 minus			ambiguious.wav	30000	500	spoken				400.52458353441943	n	25
2	yes	19	test	colour	illusion	White.png	Do the horizontal bars have different colours?	2 minus	minus		whiteQC.wav	5000	500	yes-no	minus	6.83698408048258	1	407.8741783843525	n	25
2	yes	13	test	shape	illusion	bourdon.png	Are the lines of the right side of the triangles bent?	2 minus	minus		bourdonQC.wav	5000	500	yes-no	2	7.838168917003713	0	416.2407341448088	n	25
2	yes	1	test	shape	illusion	mullerlyer.png	Are the two lines of same length?	2 minus	2		mullerlyerQC.wav	5000	500	yes-no	2	6.677494710986139	1	423.44037626258614	n	25
3		28	test	ambiguous	illusion	stairs.png	Are the stairs going from right bottom to left top?	2 minus	2		stairsQ1.wav	5000	500	yes-no	2	9.28974804394602	1	433.2403175880554	n	25
3		29	test	ambiguous	illusion	stairs.png	Can you also see another representation?	2 minus	2		stairs2.wav	5000	500	yes-no	2	5.068355423401954	1	438.8066613421961	n	25
